topword,middleword,bottomword,chosenword,percentage,trial_type,question,response,rt,session,points,trialnum,datetime
,,,,,demographic,automatic user agent check,"Mozilla/5.0 (Windows NT 6.1; Win64; x64) AppleWebKit/537.36 (KHTML, like Gecko) Chrome/108.0.0.0 Safari/537.36",,1,0,,2022-12-16T06:09:44.786Z
a crow,a mouse,a worm,a crow,,trial,,,3032.900000035763,1,0,2,2022-12-16T06:34:19.675Z
a mouse,a crow,an octopus,a mouse,,trial,,,2728.800000011921,1,1,3,2022-12-16T06:34:22.404Z
rat,vulture,turkey,,0,feedback,,,2435.300000011921,1,2,4,2022-12-16T06:34:32.042Z
,,,,,demographic,what is your age?,26,3452.399999976158,1,57,,2022-12-16T06:34:39.893Z
a mouse,beautiful,a crow,a mouse,,trial,,,4494.900000035763,1,57,5,2022-12-16T06:34:44.390Z
beautiful,a mouse,a lizard,a lizard,,trial,,,2789.399999976158,1,58,6,2022-12-16T06:34:47.180Z
a chicken,a lizard,a mouse,a mouse,,trial,,,2324.400000035763,1,68,7,2022-12-16T06:34:49.504Z
alligator,seal,camel,,100,feedback,,,3863,1,78,8,2022-12-16T06:34:53.374Z
,,,,,demographic,what is your gender?,female,1956.1000000238419,1,98,,2022-12-16T06:34:55.432Z
to climb,a snake,soft,to climb,,trial,,,4850,1,98,9,2022-12-16T06:35:00.285Z
a snake,to climb,a horse,a snake,,trial,,,3755.599999964237,1,99,10,2022-12-16T06:35:04.040Z
chicken,dog,bat,,93,feedback,,,4639.800000011921,1,100,11,2022-12-16T06:35:08.689Z
,,,,,demographic,what languages do you speak?,1,3508.800000011921,1,125,,2022-12-16T06:35:12.252Z
to stand,thick,a mosquito,to stand,,trial,,,2895.699999988079,1,125,12,2022-12-16T06:35:15.150Z
thick,to stand,to lay,to lay,,trial,,,2699.900000035763,1,126,13,2022-12-16T06:35:17.850Z
a squid,to lay,to stand,to stand,,trial,,,2388.800000011921,1,136,14,2022-12-16T06:35:20.239Z
rattlesnake,bat,fawn,,25,feedback,,,4935.399999976158,1,146,15,2022-12-16T06:35:25.180Z
,,,,,demographic,what is the highest level ofeducation you have completed?,5_bachelor,2819.699999988079,1,176,,2022-12-16T06:35:28.006Z
a dog,a chicken,naked,a dog,,trial,,,2440.5,1,176,16,2022-12-16T06:35:30.450Z
a chicken,a dog,clever,a chicken,,trial,,,2443.199999988079,1,177,17,2022-12-16T06:35:32.893Z
fawn,gorilla,crocodile,,14,feedback,,,4986.5,1,178,18,2022-12-16T06:35:37.893Z
,,,,,demographic,what is your first/native language?,english,5398.900000035763,1,198,,2022-12-16T06:35:47.661Z
sick,empty,beautiful,beautiful,,trial,,,2989.599999964237,1,198,19,2022-12-16T06:35:50.654Z
a crocodile,beautiful,empty,a crocodile,,trial,,,2750.400000035763,1,208,20,2022-12-16T06:35:53.405Z
beautiful,a crocodile,a cat,a cat,,trial,,,2258.199999988079,1,209,21,2022-12-16T06:35:55.663Z
weak,a cat,a crocodile,a crocodile,,trial,,,3287.300000011921,1,219,22,2022-12-16T06:35:58.950Z
cougar,dolphin,toad,,25,feedback,,,4185.199999988079,1,229,23,2022-12-16T06:36:03.140Z
,,,,,demographic,what country do you currently live in?,usa,4225.899999976158,1,270,,2022-12-16T06:36:07.372Z
strong,to stand,a fox,strong,,trial,,,3890.199999988079,1,270,24,2022-12-16T06:36:11.270Z
to stand,strong,ripe,to stand,,trial,,,2311.300000011921,1,271,25,2022-12-16T06:36:13.581Z
turkey,dog,coyote,,0,feedback,,,4393.5,1,272,26,2022-12-16T06:36:17.984Z
,,,,,demographic,do you have any comments for us?,,1897,1,336,,2022-12-16T06:36:19.892Z
a crab,to kick,a tiger,a crab,,trial,,,2605.600000023842,1,336,27,2022-12-16T06:36:22.501Z
to kick,a crab,a cow,a cow,,trial,,,2975.899999976158,1,337,28,2022-12-16T06:36:25.477Z
good,a cow,a crab,a crab,,trial,,,3974.7000000476837,1,347,29,2022-12-16T06:36:29.451Z
dolphin,horse,chicken,,30,feedback,,,5034.399999976158,1,357,30,2022-12-16T06:36:34.492Z
sick,a pigeon,a pigeon,a pigeon,,catch,,,2901.599999964237,1,410,31,2022-12-16T06:36:37.403Z
alligator,dolphin,cow,,100,feedback,,,2972.699999988079,1,420,32,2022-12-16T06:36:40.383Z
a rat,a cat,a chicken,a rat,,trial,,,1772.1000000238419,1,441,33,2022-12-16T06:36:42.165Z
a cat,a rat,beautiful,a cat,,trial,,,2105.399999976158,1,442,34,2022-12-16T06:36:44.270Z
turtle,seal,elk,,88,feedback,,,5025.800000011921,1,443,35,2022-12-16T06:36:49.300Z
a mosquito,deaf,a mouse,a mosquito,,trial,,,3117.699999988079,1,476,36,2022-12-16T06:36:52.428Z
deaf,a mosquito,a chicken,a chicken,,trial,,,3038.800000011921,1,477,37,2022-12-16T06:36:55.467Z
a lizard,a chicken,a mosquito,a lizard,,trial,,,2282.199999988079,1,487,38,2022-12-16T06:36:57.749Z
a chicken,a lizard,a dog,a chicken,,trial,,,4710.800000011921,1,488,39,2022-12-16T06:37:02.460Z
rooster,vulture,toad,,100,feedback,,,2934.800000011921,1,489,40,2022-12-16T06:37:05.399Z
full,a rat,cheap,cheap,,trial,,,3400.099999964237,1,546,41,2022-12-16T06:37:08.812Z
sad,cheap,a rat,a rat,,trial,,,1947.800000011921,1,556,42,2022-12-16T06:37:10.760Z
lamb,seal,toad,,19,feedback,,,3230.800000011921,1,566,43,2022-12-16T06:37:13.997Z
last,last,an octopus,last,,catch,,,1784.699999988079,1,597,44,2022-12-16T06:37:19.503Z
vulture,rat,tiger,,59,feedback,,,3625.600000023842,1,598,45,2022-12-16T06:37:23.133Z
famous,a frog,a crab,a crab,,trial,,,1776.199999988079,1,681,46,2022-12-16T06:37:26.223Z
a pig,a crab,a frog,a pig,,trial,,,1335.5,1,691,47,2022-12-16T06:37:27.558Z
a crab,a pig,a dolphin,a crab,,trial,,,3795.800000011921,1,692,48,2022-12-16T06:37:31.354Z
rooster,pig,gorilla,,73,feedback,,,4778.800000011921,1,693,49,2022-12-16T06:37:36.141Z
soft,a mosquito,sick,soft,,trial,,,1431.699999988079,1,732,50,2022-12-16T06:37:42.799Z
a mosquito,soft,stupid,stupid,,trial,,,3918.300000011921,1,733,51,2022-12-16T06:37:46.717Z
a squid,stupid,soft,soft,,trial,,,3047.399999976158,1,743,52,2022-12-16T06:37:49.765Z
turkey,penguin,seal,,22,feedback,,,4757.099999964237,1,753,53,2022-12-16T06:37:54.528Z
an octopus,last,last,last,,catch,,,1353.6000000238419,1,799,54,2022-12-16T06:38:15.886Z
chimp,dolphin,crab,,19,feedback,,,3271.699999988079,1,809,55,2022-12-16T06:38:19.165Z
a zebra,other,a cow,a zebra,,trial,,,1831,1,851,56,2022-12-16T06:38:23.135Z
other,a zebra,a seal,other,,trial,,,4114.5,1,852,57,2022-12-16T06:38:27.249Z
frog,dolphin,elk,,56,feedback,,,3346.199999988079,1,853,58,2022-12-16T06:38:30.601Z
soft,a lion,bad,soft,,trial,,,2560.100000023842,1,950,59,2022-12-16T06:38:36.081Z
a lion,soft,last,a lion,,trial,,,3772.5,1,951,60,2022-12-16T06:38:39.854Z
caribou,bat,alligator,,44,feedback,,,4278.899999976158,1,952,61,2022-12-16T06:38:44.141Z
an octopus,to duck,famous,an octopus,,trial,,,2171.5,1,1030,62,2022-12-16T06:38:48.981Z
to duck,an octopus,to walk,to duck,,trial,,,2129.800000011921,1,1031,63,2022-12-16T06:38:51.111Z
rattlesnake,bat,gorilla,,49,feedback,,,4503.800000011921,1,1032,64,2022-12-16T06:38:55.621Z
sad,to carry,bad,sad,,trial,,,107943.80000001192,1,1105,65,2022-12-16T06:40:43.574Z
to carry,sad,a nest,to carry,,trial,,,2608.400000035763,1,1106,66,2022-12-16T06:40:46.182Z
fawn,horse,peacock,,61,feedback,,,4346,1,1107,67,2022-12-16T06:40:50.533Z
to duck,last,a worm,a worm,,trial,,,1668,1,1154,68,2022-12-16T06:40:55.461Z
to carry,a worm,last,last,,trial,,,1889.5999999642372,1,1164,69,2022-12-16T06:40:57.351Z
perch,seal,camel,,50,feedback,,,2406,1,1174,70,2022-12-16T06:40:59.765Z
cheap,bad,to jump,cheap,,trial,,,1982,1,1271,71,2022-12-16T06:41:04.718Z
bad,cheap,weak,bad,,trial,,,1873.0999999642372,1,1272,72,2022-12-16T06:41:06.591Z
bat,bear,crocodile,,48,feedback,,,2853.699999988079,1,1273,73,2022-12-16T06:41:09.453Z
sick,clever,clever,clever,,catch,,,2476.5,1,1364,74,2022-12-16T06:41:30.829Z
dolphin,goat,chicken,,51,feedback,,,6242.399999976158,1,1374,75,2022-12-16T06:41:37.078Z
a mosquito,a fish,deaf,a mosquito,,trial,,,22051.599999964237,1,1454,76,2022-12-16T06:42:15.132Z
a fish,a mosquito,a zebra,a zebra,,trial,,,2449.300000011921,1,1455,77,2022-12-16T06:42:17.582Z
to walk,a zebra,a mosquito,to walk,,trial,,,3120.600000023842,1,1465,78,2022-12-16T06:42:20.702Z
a zebra,to walk,a dolphin,a zebra,,trial,,,3536.599999964237,1,1466,79,2022-12-16T06:42:24.239Z
perch,dolphin,pony,,65,feedback,,,5527.699999988079,1,1467,80,2022-12-16T06:42:29.773Z
a giraffe,a lizard,a horse,a horse,,trial,,,72076.80000001192,1,1547,81,2022-12-16T06:43:46.183Z
a turtle,a horse,a lizard,a turtle,,trial,,,20038.19999998808,1,1557,82,2022-12-16T06:44:06.221Z
a horse,a turtle,a whale,a whale,,trial,,,3130.300000011921,1,1558,83,2022-12-16T06:44:09.351Z
weak,a whale,a turtle,a turtle,,trial,,,17813.100000023842,1,1568,84,2022-12-16T06:44:27.164Z
turkey,lamb,elephant,,53,feedback,,,3786.300000011921,1,1578,85,2022-12-16T06:44:30.958Z
nasty,to hide,a rabbit,nasty,,trial,,,1957.199999988079,1,1646,86,2022-12-16T06:44:35.241Z
to hide,nasty,a dolphin,to hide,,trial,,,1713.1000000238419,1,1647,87,2022-12-16T06:44:36.954Z
iguana,crocodile,peacock,,63,feedback,,,2093.199999988079,1,1648,88,2022-12-16T06:44:39.052Z
a lion,a fish,a rabbit,a rabbit,,trial,,,4579.400000035763,1,1699,89,2022-12-16T06:44:45.390Z
an octopus,a rabbit,a fish,a fish,,trial,,,3131.5,1,1709,90,2022-12-16T06:44:48.521Z
chimp,goat,chicken,,44,feedback,,,3597.199999988079,1,1719,91,2022-12-16T06:44:52.125Z
to lay,powerful,a squirrel,to lay,,trial,,,2263.300000011921,1,1787,92,2022-12-16T06:45:11.205Z
powerful,to lay,to climb,to climb,,trial,,,3527.100000023842,1,1788,93,2022-12-16T06:45:14.732Z
to walk,to climb,to lay,to lay,,trial,,,1736.2999999523163,1,1798,94,2022-12-16T06:45:16.469Z
alligator,beaver,caribou,,79,feedback,,,3098.100000023842,1,1808,95,2022-12-16T06:45:19.573Z
powerful,a turtle,a whale,a whale,,trial,,,2444.300000011921,1,1833,96,2022-12-16T06:45:25.646Z
empty,a whale,a turtle,a turtle,,trial,,,1334.300000011921,1,1843,97,2022-12-16T06:45:26.980Z
rooster,lamb,dolphin,,56,feedback,,,4428.399999976158,1,1853,98,2022-12-16T06:45:31.413Z
to carry,a lion,ripe,to carry,,trial,,,2363.699999988079,1,1936,99,2022-12-16T06:45:34.780Z
a lion,to carry,deaf,a lion,,trial,,,1441.4000000357628,1,1937,100,2022-12-16T06:45:36.221Z
chicken,goat,seal,,61,feedback,,,2563.300000011921,1,1938,101,2022-12-16T06:45:38.790Z
a cow,to sit,a crocodile,a cow,,trial,,,2658.199999988079,1,2013,102,2022-12-16T06:45:42.181Z
to sit,a cow,to climb,to sit,,trial,,,2265.199999988079,1,2014,103,2022-12-16T06:45:44.447Z
alligator,iguana,coyote,,80,feedback,,,3737.7000000476837,1,2015,104,2022-12-16T06:45:48.191Z
a mouse,an elephant,good,a mouse,,trial,,,2463.199999988079,1,2106,105,2022-12-16T06:45:50.661Z
an elephant,a mouse,to crawl,an elephant,,trial,,,1388.800000011921,1,2107,106,2022-12-16T06:45:52.050Z
chicken,sheep,gorilla,,58,feedback,,,3454.899999976158,1,2108,107,2022-12-16T06:45:55.509Z
a rat,a lizard,to dive,a rat,,trial,,,8831.699999988079,1,2178,108,2022-12-16T06:46:07.965Z
a lizard,a rat,to dance,a lizard,,trial,,,1472.6000000238419,1,2179,109,2022-12-16T06:46:09.438Z
dog,turkey,duck,,14,feedback,,,3240.600000023842,1,2180,110,2022-12-16T06:46:12.684Z
a frog,a spider,to stand,a frog,,trial,,,1861.4000000357628,1,2277,111,2022-12-16T06:46:17.989Z
a spider,a frog,a fox,a spider,,trial,,,2054.7999999523163,1,2278,112,2022-12-16T06:46:20.044Z
pig,bat,alligator,,51,feedback,,,2124.099999964237,1,2279,113,2022-12-16T06:46:22.189Z
a crow,to crawl,to lay,to lay,,trial,,,2316.800000011921,1,2379,114,2022-12-16T06:46:27.741Z
to run,to lay,to crawl,to crawl,,trial,,,1231.199999988079,1,2389,115,2022-12-16T06:46:28.972Z
cat,seal,crab,,52,feedback,,,2851.600000023842,1,2399,116,2022-12-16T06:46:31.829Z
ripe,a pigeon,a horse,a horse,,trial,,,2528.199999988079,1,2477,117,2022-12-16T06:46:35.911Z
beautiful,a horse,a pigeon,a pigeon,,trial,,,1889,1,2487,118,2022-12-16T06:46:37.800Z
coyote,seal,crab,,34,feedback,,,3164.199999988079,1,2497,119,2022-12-16T06:46:40.968Z
to stand,to lay,a cow,to stand,,trial,,,1799,1,2558,120,2022-12-16T06:46:49.886Z
to lay,to stand,stupid,to lay,,trial,,,1214.800000011921,1,2559,121,2022-12-16T06:46:51.101Z
rooster,vulture,turtle,,78,feedback,,,2365.199999988079,1,2560,122,2022-12-16T06:46:53.470Z
a tiger,a cat,beautiful,a tiger,,trial,,,4053.699999988079,1,2643,123,2022-12-16T06:46:59.806Z
a cat,a tiger,deaf,a cat,,trial,,,1792.300000011921,1,2644,124,2022-12-16T06:47:01.598Z
turtle,dolphin,cougar,,66,feedback,,,3755.100000023842,1,2645,125,2022-12-16T06:47:05.359Z
a zebra,thin,to hide,to hide,,trial,,,1511.300000011921,1,2720,126,2022-12-16T06:47:08.077Z
weak,to hide,thin,thin,,trial,,,1153.5,1,2730,127,2022-12-16T06:47:09.231Z
rooster,horse,rat,,57,feedback,,,3297.7000000476837,1,2740,128,2022-12-16T06:47:12.533Z
a pigeon,cheap,to kick,a pigeon,,trial,,,3491.199999988079,1,2808,129,2022-12-16T06:47:16.031Z
cheap,a pigeon,to dive,to dive,,trial,,,2831.5,1,2809,130,2022-12-16T06:47:18.863Z
other,to dive,a pigeon,other,,trial,,,2216.7000000476837,1,2819,131,2022-12-16T06:47:21.080Z
to dive,other,a crocodile,to dive,,trial,,,3125.399999976158,1,2820,132,2022-12-16T06:47:24.205Z
cougar,dolphin,lobster,,24,feedback,,,2850.599999964237,1,2821,133,2022-12-16T06:47:27.060Z
to swim,to sit,thick,thick,,trial,,,13898.100000023842,1,2874,134,2022-12-16T06:47:43.637Z
to crawl,thick,to sit,to sit,,trial,,,1767.5,1,2884,135,2022-12-16T06:47:45.405Z
bat,caribou,duck,,48,feedback,,,2828.7999999523163,1,2894,136,2022-12-16T06:47:48.241Z
a squirrel,fresh,good,good,,trial,,,1887.8999999761581,1,2991,137,2022-12-16T06:47:51.999Z
weak,good,fresh,weak,,trial,,,4102.399999976158,1,3001,138,2022-12-16T06:47:56.101Z
good,weak,to run,good,,trial,,,2209.2000000476837,1,3002,139,2022-12-16T06:47:58.311Z
pig,tiger,alligator,,48,feedback,,,2077.899999976158,1,3003,140,2022-12-16T06:48:00.409Z
to lay,a seal,to sit,to lay,,trial,,,40470,1,3081,141,2022-12-16T06:48:42.253Z
a seal,to lay,sad,a seal,,trial,,,2751.300000011921,1,3082,142,2022-12-16T06:48:45.004Z
rattlesnake,turtle,perch,,31,feedback,,,2969.100000023842,1,3083,143,2022-12-16T06:48:47.981Z
a snake,full,ripe,ripe,,trial,,,2481.400000035763,1,3124,144,2022-12-16T06:48:52.591Z
gentle,ripe,full,full,,trial,,,7182.699999988079,1,3134,145,2022-12-16T06:48:59.774Z
alligator,bat,deer,,51,feedback,,,1991.6000000238419,1,3144,146,2022-12-16T06:49:01.773Z
an elephant,to run,a snake,a snake,,trial,,,11679.399999976158,1,3241,147,2022-12-16T06:49:27.791Z
a crab,a snake,to run,a crab,,trial,,,2724.100000023842,1,3251,148,2022-12-16T06:49:30.515Z
a snake,a crab,empty,a snake,,trial,,,2692.699999988079,1,3252,149,2022-12-16T06:49:33.207Z
elephant,dolphin,lobster,,26,feedback,,,3280.300000011921,1,3253,150,2022-12-16T06:49:36.493Z
to carry,a zebra,good,good,,trial,,,1909.2999999523163,1,3300,151,2022-12-16T06:49:54.765Z
a nest,good,a zebra,a zebra,,trial,,,2617.600000023842,1,3310,152,2022-12-16T06:49:57.382Z
chicken,goat,lion,,48,feedback,,,52968.40000003576,1,3320,153,2022-12-16T06:50:50.358Z
a worm,cheap,to jump,to jump,,trial,,,1885.5,1,3400,154,2022-12-16T06:50:53.185Z
a squid,to jump,cheap,cheap,,trial,,,1970.6000000238419,1,3410,155,2022-12-16T06:50:55.156Z
bat,lion,crocodile,,46,feedback,,,2412.600000023842,1,3420,156,2022-12-16T06:50:57.575Z
a crocodile,nasty,naked,naked,,trial,,,1688.300000011921,1,3517,157,2022-12-16T06:51:00.022Z
a giraffe,naked,nasty,nasty,,trial,,,1256.3999999761581,1,3527,158,2022-12-16T06:51:01.278Z
rattlesnake,tiger,dolphin,,48,feedback,,,2359.199999988079,1,3537,159,2022-12-16T06:51:03.653Z
a pigeon,fresh,clever,clever,,trial,,,2994.199999988079,1,3631,160,2022-12-16T06:51:08.055Z
weak,clever,fresh,weak,,trial,,,2482.800000011921,1,3641,161,2022-12-16T06:51:10.537Z
clever,weak,a fox,clever,,trial,,,1551.699999988079,1,3642,162,2022-12-16T06:51:12.089Z
caribou,duck,chicken,,41,feedback,,,4657.100000023842,1,3643,163,2022-12-16T06:51:16.751Z
soft,a worm,bad,soft,,trial,,,23092.400000035763,1,3680,164,2022-12-16T06:51:53.741Z
a worm,soft,last,a worm,,trial,,,1720.3999999761581,1,3681,165,2022-12-16T06:51:55.462Z
zebra,horse,chicken,,85,feedback,,,3329.800000011921,1,3682,166,2022-12-16T06:51:58.796Z
a mosquito,a cow,a snake,a snake,,trial,,,1516.8999999761581,1,3770,167,2022-12-16T06:52:01.621Z
a seal,a snake,a cow,a seal,,trial,,,2771.5,1,3780,168,2022-12-16T06:52:04.392Z
a snake,a seal,a cat,a cat,,trial,,,2999.699999988079,1,3781,169,2022-12-16T06:52:07.392Z
to duck,a cat,a seal,a seal,,trial,,,3577.400000035763,1,3791,170,2022-12-16T06:52:10.969Z
crab,dolphin,elk,,68,feedback,,,3053.900000035763,1,3801,171,2022-12-16T06:52:14.028Z
a fish,thin,a mosquito,a mosquito,,trial,,,2766.5,1,3869,172,2022-12-16T06:52:19.573Z
a seal,a mosquito,thin,a seal,,trial,,,1488.1000000238419,1,3879,173,2022-12-16T06:52:21.061Z
a mosquito,a seal,a dolphin,a dolphin,,trial,,,3353.800000011921,1,3880,174,2022-12-16T06:52:24.414Z
a rat,a dolphin,a seal,a seal,,trial,,,1765.8999999761581,1,3890,175,2022-12-16T06:52:26.180Z
cougar,seal,frog,,31,feedback,,,2612.599999964237,1,3900,176,2022-12-16T06:52:28.798Z
fresh,a squirrel,a cat,a cat,,trial,,,31110.599999964237,1,3951,177,2022-12-16T06:53:01.143Z
to duck,a cat,a squirrel,a squirrel,,trial,,,4136.800000011921,1,3961,178,2022-12-16T06:53:05.279Z
rattlesnake,bat,pony,,52,feedback,,,3213.100000023842,1,3971,179,2022-12-16T06:53:08.498Z
a squirrel,a snake,a mosquito,a mosquito,,trial,,,2175.5,1,4054,180,2022-12-16T06:53:31.046Z
a worm,a mosquito,a snake,a worm,,trial,,,21553.80000001192,1,4064,181,2022-12-16T06:53:52.600Z
a mosquito,a worm,a horse,a mosquito,,trial,,,1884.1000000238419,1,4065,182,2022-12-16T06:53:54.484Z
deer,dolphin,frog,,50,feedback,,,9411.300000011921,1,4066,183,2022-12-16T06:54:03.902Z
a fox,a frog,ripe,ripe,,trial,,,41208.5,1,4160,184,2022-12-16T06:54:46.388Z
a crocodile,ripe,a frog,a frog,,trial,,,1973.199999988079,1,4170,185,2022-12-16T06:54:48.361Z
perch,dolphin,lion,,64,feedback,,,3355.100000023842,1,4180,186,2022-12-16T06:54:51.725Z
to jump,soft,to stand,to stand,,trial,,,1509.8999999761581,1,4253,187,2022-12-16T06:54:54.021Z
sad,to stand,soft,soft,,trial,,,2169,1,4263,188,2022-12-16T06:54:56.190Z
camel,caribou,duck,,67,feedback,,,2777.899999976158,1,4273,189,2022-12-16T06:54:58.973Z
a giraffe,bad,to lay,to lay,,trial,,,26973.80000001192,1,4328,190,2022-12-16T06:55:27.830Z
a fish,to lay,bad,bad,,trial,,,1888.300000011921,1,4338,191,2022-12-16T06:55:29.718Z
coyote,seal,turtle,,50,feedback,,,2618.900000035763,1,4348,192,2022-12-16T06:55:32.342Z
deaf,to duck,an octopus,an octopus,,trial,,,2463.600000023842,1,4426,193,2022-12-16T06:56:36.194Z
naked,an octopus,to duck,to duck,,trial,,,5091.399999976158,1,4436,194,2022-12-16T06:56:41.286Z
toad,rat,gorilla,,50,feedback,,,1929.1000000238419,1,4446,195,2022-12-16T06:56:43.221Z
last,thick,other,other,,trial,,,1913.5,1,4537,196,2022-12-16T06:56:46.096Z
a cow,other,thick,thick,,trial,,,1347.0999999642372,1,4547,197,2022-12-16T06:56:47.443Z
iguana,coyote,dolphin,,50,feedback,,,2227.100000023842,1,4557,198,2022-12-16T06:56:49.678Z
a pigeon,a crab,a rat,a pigeon,,trial,,,2437.899999976158,1,4640,199,2022-12-16T06:56:52.841Z
a crab,a pigeon,deaf,a crab,,trial,,,1042.3999999761581,1,4641,200,2022-12-16T06:56:53.883Z
mouse,sheep,rooster,,49,feedback,,,3618.900000035763,1,4642,201,2022-12-16T06:56:57.509Z
to duck,a pigeon,a fox,to duck,,trial,,,40926.40000003576,1,4728,202,2022-12-16T06:57:43.181Z
a pigeon,to duck,a cow,a pigeon,,trial,,,2103.2999999523163,1,4729,203,2022-12-16T06:57:45.285Z
elk,zebra,peacock,,82,feedback,,,2922.600000023842,1,4730,204,2022-12-16T06:57:48.213Z
a dolphin,a chicken,ripe,ripe,,trial,,,2473,1,4827,205,2022-12-16T06:57:50.693Z
a rat,ripe,a chicken,a chicken,,trial,,,1818.199999988079,1,4837,206,2022-12-16T06:57:52.511Z
perch,seal,coyote,,57,feedback,,,3350.300000011921,1,4847,207,2022-12-16T06:57:55.870Z
soft,a cat,a dog,a dog,,trial,,,51907.40000003576,1,4927,208,2022-12-16T06:58:49.692Z
a crab,a dog,a cat,a cat,,trial,,,2667.199999988079,1,4937,209,2022-12-16T06:58:52.359Z
bat,pig,rooster,,46,feedback,,,2873.300000011921,1,4947,210,2022-12-16T06:58:55.239Z
an elephant,to stand,a cow,a cow,,trial,,,2457.5,1,5047,211,2022-12-16T06:58:58.950Z
a spider,a cow,to stand,to stand,,trial,,,2623.300000011921,1,5057,212,2022-12-16T06:59:01.573Z
turtle,beaver,chimp,,58,feedback,,,3920.699999988079,1,5067,213,2022-12-16T06:59:05.500Z
a lion,an elephant,soft,a lion,,trial,,,2400.5,1,5124,214,2022-12-16T06:59:07.909Z
an elephant,a lion,a seal,an elephant,,trial,,,1383.300000011921,1,5125,215,2022-12-16T06:59:09.292Z
crocodile,duck,chicken,,0,feedback,,,3302.800000011921,1,5126,216,2022-12-16T06:59:12.599Z
fresh,a cow,a whale,fresh,,trial,,,3919.900000035763,1,5192,217,2022-12-16T06:59:16.528Z
a cow,fresh,an elephant,a cow,,trial,,,1812.5,1,5193,218,2022-12-16T06:59:18.341Z
pony,seal,perch,,41,feedback,,,2301,1,5194,219,2022-12-16T06:59:20.652Z
a chicken,full,naked,a chicken,,trial,,,2494.199999988079,1,5277,220,2022-12-16T06:59:24.197Z
full,a chicken,a cow,a cow,,trial,,,3399.899999976158,1,5278,221,2022-12-16T06:59:27.597Z
a rabbit,a cow,a chicken,a chicken,,trial,,,2447.300000011921,1,5288,222,2022-12-16T06:59:30.044Z
caribou,dolphin,lobster,,25,feedback,,,2799.699999988079,1,5298,223,2022-12-16T06:59:32.854Z
a nest,other,a tiger,a nest,,trial,,,1926,1,5353,224,2022-12-16T06:59:37.320Z
other,a nest,full,other,,trial,,,2558.399999976158,1,5354,225,2022-12-16T06:59:39.880Z
seal,penguin,vulture,,70,feedback,,,2614.800000011921,1,5355,226,2022-12-16T06:59:42.499Z
weak,famous,a whale,a whale,,trial,,,3104.800000011921,1,5410,227,2022-12-16T06:59:57.522Z
beautiful,a whale,famous,beautiful,,trial,,,1523.7999999523163,1,5420,228,2022-12-16T06:59:59.046Z
a whale,beautiful,last,a whale,,trial,,,1584.300000011921,1,5421,229,2022-12-16T07:00:00.630Z
peacock,zebra,seal,,51,feedback,,,5453.100000023842,1,5422,230,2022-12-16T07:00:06.093Z
a cow,ripe,to run,to run,,trial,,,1750,1,5500,231,2022-12-16T07:00:08.830Z
a wolf,to run,ripe,ripe,,trial,,,1095.0999999642372,1,5510,232,2022-12-16T07:00:09.925Z
rooster,lamb,rat,,51,feedback,,,2337.5,1,5520,233,2022-12-16T07:00:12.270Z
to lay,a rat,a worm,to lay,,trial,,,1870.300000011921,1,5608,234,2022-12-16T07:00:14.869Z
a rat,to lay,a whale,a rat,,trial,,,4616.599999964237,1,5609,235,2022-12-16T07:00:19.486Z
cougar,bat,rattlesnake,,50,feedback,,,2514.300000011921,1,5610,236,2022-12-16T07:00:22.005Z
to dance,a dolphin,to hide,to hide,,trial,,,35006.200000047684,1,5688,237,2022-12-16T07:00:58.117Z
a mouse,to hide,a dolphin,a mouse,,trial,,,1872,1,5698,238,2022-12-16T07:00:59.989Z
to hide,a mouse,an octopus,to hide,,trial,,,1776.5999999642372,1,5699,239,2022-12-16T07:01:01.766Z
horse,pony,rooster,,89,feedback,,,2593.300000011921,1,5700,240,2022-12-16T07:01:04.366Z
ripe,a fox,a dolphin,a dolphin,,trial,,,2446.5,1,5786,241,2022-12-16T07:01:09.253Z
bad,a dolphin,a fox,a fox,,trial,,,2231.600000023842,1,5796,242,2022-12-16T07:01:11.485Z
,,,,50,feedback,,,3192.199999988079,1,5806,243,2022-12-16T07:01:14.685Z
a pig,cheap,to kick,a pig,,trial,,,2168,1,,244,2022-12-16T07:01:18.382Z
cheap,a pig,deaf,deaf,,trial,,,2783.300000011921,1,,245,2022-12-16T07:01:21.165Z
a rabbit,deaf,a pig,a rabbit,,trial,,,3482.300000011921,1,,246,2022-12-16T07:01:24.647Z
deaf,a rabbit,a whale,a whale,,trial,,,2351.2999999523163,1,,247,2022-12-16T07:01:26.999Z
a fox,a whale,a rabbit,a rabbit,,trial,,,1726.1000000238419,1,,248,2022-12-16T07:01:28.725Z
,,,,50,feedback,,,2288.199999988079,1,,249,2022-12-16T07:01:31.020Z
a seal,a rabbit,powerful,a seal,,trial,,,1242.4000000357628,1,,250,2022-12-16T07:01:33.128Z
a rabbit,a seal,thick,thick,,trial,,,3725.599999964237,1,,251,2022-12-16T07:01:36.854Z
to crawl,thick,a seal,to crawl,,trial,,,2366.199999988079,1,,252,2022-12-16T07:01:39.220Z
thick,to crawl,sad,thick,,trial,,,1298.1000000238419,1,,253,2022-12-16T07:01:40.518Z
,,,,,cap,completion_code,whssmm1mz0jdr,,1,,253,2022-12-16T07:01:58.565Z
,,,,54,feedback,,,2994,1,,255,2022-12-16T07:02:01.561Z
