topword,middleword,bottomword,chosenword,percentage,trial_type,question,response,rt,session,points,trialnum,datetime
,,,,,demographic,automatic user agent check,Mozilla/5.0 (Windows NT 10.0; Win64; x64; rv:108.0) Gecko/20100101 Firefox/108.0,,1,0,,2023-01-10T19:50:24.521Z
to sit,a tiger,last,last,,trial,,,15113,1,0,2,2023-01-10T19:51:15.393Z
to dive,last,a tiger,to dive,,trial,,,9314,1,10,3,2023-01-10T19:51:24.707Z
last,to dive,an elephant,an elephant,,trial,,,4822,1,11,4,2023-01-10T19:51:29.529Z
a zebra,an elephant,to dive,a zebra,,trial,,,3261,1,21,5,2023-01-10T19:51:32.790Z
an elephant,a zebra,a horse,a horse,,trial,,,5814,1,22,6,2023-01-10T19:51:38.603Z
to crawl,a horse,a zebra,a zebra,,trial,,,3406,1,32,7,2023-01-10T19:51:42.009Z
alligator,bat,caribou,,28,feedback,,,5239,1,42,8,2023-01-10T19:52:00.403Z
,,,,,demographic,what is your age?,29,3406,1,85,,2023-01-10T19:52:10.694Z
a zebra,sick,a rabbit,a rabbit,,trial,,,7269,1,85,9,2023-01-10T19:52:17.965Z
stupid,a rabbit,sick,sick,,trial,,,5524,1,95,10,2023-01-10T19:52:23.488Z
money,other,disturb,,91,feedback,,,7578,1,105,11,2023-01-10T19:52:31.070Z
,,,,,demographic,what is your gender?,male,1995,1,105,,2023-01-10T19:52:33.068Z
a nest,a worm,cheap,a nest,,trial,,,5799,1,105,12,2023-01-10T19:52:38.868Z
a worm,a nest,bad,a worm,,trial,,,2851,1,106,13,2023-01-10T19:52:41.720Z
sell,grandfather,deceive,,88,feedback,,,6540,1,107,14,2023-01-10T19:52:48.263Z
,,,,,demographic,what languages do you speak?,english,4085,1,175,,2023-01-10T19:52:58.815Z
a dolphin,soft,thin,thin,,trial,,,3072,1,175,15,2023-01-10T19:53:01.888Z
a fish,thin,soft,soft,,trial,,,3179,1,185,16,2023-01-10T19:53:05.068Z
alligator,turtle,crab,,0,feedback,,,3819,1,195,17,2023-01-10T19:53:08.889Z
,,,,,demographic,what is the highest level ofeducation you have completed?,5_bachelor,1822,1,226,,2023-01-10T19:53:15.264Z
a pig,a fish,gentle,gentle,,trial,,,2693,1,226,18,2023-01-10T19:53:17.959Z
a giraffe,gentle,a fish,a fish,,trial,,,5028,1,236,19,2023-01-10T19:53:22.985Z
frog,dolphin,deer,,58,feedback,,,2940,1,246,20,2023-01-10T19:53:25.929Z
,,,,,demographic,what is your first/native language?,english,5088,1,317,,2023-01-10T19:53:33.822Z
deaf,to swim,a lion,a lion,,trial,,,5471,1,317,21,2023-01-10T19:53:39.294Z
stupid,a lion,to swim,to swim,,trial,,,2640,1,327,22,2023-01-10T19:53:41.934Z
sheep,chimp,peacock,,72,feedback,,,4873,1,337,23,2023-01-10T19:53:46.809Z
,,,,,demographic,what country do you currently live in?,usa,3343,1,356,,2023-01-10T19:53:50.156Z
an octopus,a dog,a snake,a snake,,trial,,,4785,1,356,24,2023-01-10T19:53:54.942Z
strong,a snake,a dog,strong,,trial,,,4529,1,366,25,2023-01-10T19:53:59.470Z
a snake,strong,a crocodile,a crocodile,,trial,,,3190,1,367,26,2023-01-10T19:54:02.661Z
a crab,a crocodile,strong,strong,,trial,,,4319,1,377,27,2023-01-10T19:54:06.980Z
rooster,pig,gorilla,,56,feedback,,,6320,1,387,28,2023-01-10T19:54:13.303Z
,,,,,demographic,do you have any comments for us?,,1805,1,480,,2023-01-10T19:54:19.632Z
to crawl,strong,naked,naked,,trial,,,4178,1,480,29,2023-01-10T19:54:23.810Z
to dance,naked,strong,strong,,trial,,,3875,1,490,30,2023-01-10T19:54:27.686Z
beaver,goat,turkey,,38,feedback,,,5852,1,500,31,2023-01-10T19:54:33.539Z
to sit,a snake,a spider,a spider,,trial,,,5915,1,598,32,2023-01-10T19:54:42.450Z
full,a spider,a snake,a snake,,trial,,,3338,1,608,33,2023-01-10T19:54:45.788Z
powerful,chest,woman,,70,feedback,,,6561,1,618,34,2023-01-10T19:54:52.351Z
a horse,to dance,sick,a horse,,trial,,,6122,1,621,35,2023-01-10T19:55:05.020Z
to dance,a horse,good,good,,trial,,,2179,1,622,36,2023-01-10T19:55:07.200Z
to carry,good,a horse,to carry,,trial,,,8481,1,632,37,2023-01-10T19:55:15.680Z
good,to carry,clever,clever,,trial,,,5798,1,633,38,2023-01-10T19:55:21.479Z
a squirrel,clever,to carry,a squirrel,,trial,,,2365,1,643,39,2023-01-10T19:55:23.844Z
clever,a squirrel,to lay,to lay,,trial,,,2863,1,644,40,2023-01-10T19:55:26.706Z
turtle,peacock,vulture,,32,feedback,,,6405,1,654,41,2023-01-10T19:55:33.113Z
good,a lion,cheap,good,,trial,,,2644,1,670,42,2023-01-10T19:55:40.634Z
a lion,good,a squirrel,a squirrel,,trial,,,3866,1,671,43,2023-01-10T19:55:44.500Z
to stand,a squirrel,good,to stand,,trial,,,4196,1,681,44,2023-01-10T19:55:48.696Z
a squirrel,to stand,deaf,a squirrel,,trial,,,2989,1,682,45,2023-01-10T19:55:51.686Z
leg,corner,famous,,24,feedback,,,5312,1,683,46,2023-01-10T19:55:57.001Z
to carry,a seal,other,to carry,,trial,,,6942,1,727,47,2023-01-10T19:56:06.222Z
a seal,to carry,clever,clever,,trial,,,3412,1,728,48,2023-01-10T19:56:09.635Z
a lizard,clever,to carry,to carry,,trial,,,4035,1,738,49,2023-01-10T19:56:13.671Z
lamb,camel,iguana,,13,feedback,,,3749,1,748,50,2023-01-10T19:56:17.421Z
other,a turtle,a dolphin,a dolphin,,trial,,,4194,1,820,51,2023-01-10T19:56:26.907Z
a frog,a dolphin,a turtle,a turtle,,trial,,,4839,1,830,52,2023-01-10T19:56:31.745Z
hear,sell,knife,,0,feedback,,,3993,1,840,53,2023-01-10T19:56:35.739Z
to climb,good,a zebra,to climb,,trial,,,3687,1,940,54,2023-01-10T19:56:43.233Z
good,to climb,gentle,good,,trial,,,349,1,941,55,2023-01-10T19:56:43.582Z
under,shirt,cloud,,100,feedback,,,10083,1,942,56,2023-01-10T19:56:53.669Z
deaf,a pig,ripe,deaf,,trial,,,5288,1,955,57,2023-01-10T19:57:03.793Z
a pig,deaf,a turtle,a turtle,,trial,,,3771,1,956,58,2023-01-10T19:57:07.564Z
a rabbit,a turtle,deaf,a rabbit,,trial,,,3698,1,966,59,2023-01-10T19:57:11.262Z
a turtle,a rabbit,to stand,to stand,,trial,,,1224,1,967,60,2023-01-10T19:57:12.486Z
soft,to stand,a rabbit,a rabbit,,trial,,,1542,1,977,61,2023-01-10T19:57:14.028Z
boot,meat,ground,,32,feedback,,,3686,1,987,62,2023-01-10T19:57:17.715Z
a dolphin,a pigeon,ripe,a dolphin,,trial,,,7998,1,1018,63,2023-01-10T19:57:29.019Z
a pigeon,a dolphin,a snake,a snake,,trial,,,5363,1,1019,64,2023-01-10T19:57:34.382Z
weak,a snake,a dolphin,a dolphin,,trial,,,3409,1,1029,65,2023-01-10T19:57:37.790Z
people,forget,message,,7,feedback,,,3829,1,1039,66,2023-01-10T19:57:41.621Z
deaf,cheap,a rat,a rat,,trial,,,4570,1,1039,67,2023-01-10T19:57:46.194Z
to carry,a rat,cheap,cheap,,trial,,,2487,1,1049,68,2023-01-10T19:57:48.680Z
penguin,vulture,rat,,18,feedback,,,3434,1,1059,69,2023-01-10T19:57:52.116Z
to walk,a zebra,to jump,to jump,,trial,,,4226,1,1119,70,2023-01-10T19:57:59.934Z
bad,to jump,a zebra,a zebra,,trial,,,2419,1,1129,71,2023-01-10T19:58:02.353Z
message,thin,needle,,0,feedback,,,3898,1,1139,72,2023-01-10T19:58:06.255Z
a spider,a pig,strong,strong,,trial,,,25136,1,1143,73,2023-01-10T19:58:38.313Z
sick,strong,a pig,a pig,,trial,,,2616,1,1153,74,2023-01-10T19:58:40.928Z
sheep,gorilla,rattlesnake,,90,feedback,,,4317,1,1163,75,2023-01-10T19:58:45.246Z
to stand,a crab,weak,to stand,,trial,,,4019,1,1173,76,2023-01-10T19:58:49.270Z
a crab,to stand,to kick,to kick,,trial,,,2416,1,1174,77,2023-01-10T19:58:51.686Z
to hide,to kick,to stand,to stand,,trial,,,2810,1,1184,78,2023-01-10T19:58:54.496Z
know,collar,picture,,14,feedback,,,3397,1,1194,79,2023-01-10T19:58:57.895Z
to stand,to lay,full,full,,trial,,,9249,1,1194,80,2023-01-10T19:59:14.650Z
soft,full,to lay,soft,,trial,,,5501,1,1204,81,2023-01-10T19:59:20.150Z
full,soft,a nest,a nest,,trial,,,2795,1,1205,82,2023-01-10T19:59:22.946Z
a pig,a nest,soft,soft,,trial,,,3107,1,1215,83,2023-01-10T19:59:26.053Z
beaver,camel,rattlesnake,,77,feedback,,,3027,1,1225,84,2023-01-10T19:59:29.082Z
to lay,a dolphin,thick,thick,,trial,,,3805,1,1241,85,2023-01-10T19:59:36.835Z
good,thick,a dolphin,a dolphin,,trial,,,2153,1,1251,86,2023-01-10T19:59:38.989Z
bear,alligator,iguana,,33,feedback,,,4938,1,1261,87,2023-01-10T19:59:43.928Z
an octopus,a squid,a rat,an octopus,,trial,,,3599,1,1276,88,2023-01-10T19:59:52.453Z
a squid,an octopus,a dog,a squid,,trial,,,3711,1,1277,89,2023-01-10T19:59:56.165Z
choose,ground,meat,,0,feedback,,,4564,1,1278,90,2023-01-10T20:00:00.730Z
good,a lion,to swim,to swim,,trial,,,2746,1,1278,91,2023-01-10T20:00:03.480Z
a snake,to swim,a lion,a snake,,trial,,,2631,1,1288,92,2023-01-10T20:00:06.110Z
to swim,a snake,a squid,a squid,,trial,,,4172,1,1289,93,2023-01-10T20:00:10.282Z
gentle,a squid,a snake,gentle,,trial,,,1267,1,1299,94,2023-01-10T20:00:11.549Z
a squid,gentle,an elephant,an elephant,,trial,,,3433,1,1300,95,2023-01-10T20:00:14.983Z
a pigeon,an elephant,gentle,a pigeon,,trial,,,7013,1,1310,96,2023-01-10T20:00:21.996Z
seek,green,gift,,65,feedback,,,3829,1,1311,97,2023-01-10T20:00:25.828Z
a rabbit,to jump,deaf,a rabbit,,trial,,,2411,1,1343,98,2023-01-10T20:00:30.730Z
to jump,a rabbit,a turtle,to jump,,trial,,,3427,1,1344,99,2023-01-10T20:00:34.156Z
bed,message,thick,,38,feedback,,,4077,1,1345,100,2023-01-10T20:00:38.235Z
a pigeon,sad,a frog,a frog,,trial,,,3653,1,1350,101,2023-01-10T20:00:47.741Z
stupid,a frog,sad,sad,,trial,,,3822,1,1360,102,2023-01-10T20:00:51.563Z
chimp,cougar,rattlesnake,,32,feedback,,,2760,1,1370,103,2023-01-10T20:00:54.324Z
a fox,a crocodile,a crocodile,a crocodile,,catch,,,3669,1,1468,104,2023-01-10T20:01:00.013Z
nest,family,add,,71,feedback,,,9178,1,1478,105,2023-01-10T20:01:09.195Z
empty,sad,to dive,empty,,trial,,,2228,1,1480,106,2023-01-10T20:01:14.713Z
sad,empty,a seal,a seal,,trial,,,2572,1,1481,107,2023-01-10T20:01:17.285Z
a rat,a seal,empty,empty,,trial,,,4331,1,1491,108,2023-01-10T20:01:21.616Z
brown,ground,money,,91,feedback,,,6814,1,1501,109,2023-01-10T20:01:28.432Z
last,powerful,to dance,last,,trial,,,3158,1,1501,110,2023-01-10T20:01:31.594Z
powerful,last,a snake,a snake,,trial,,,3340,1,1502,111,2023-01-10T20:01:34.935Z
beautiful,a snake,last,beautiful,,trial,,,3970,1,1512,112,2023-01-10T20:01:38.904Z
a snake,beautiful,to crawl,a snake,,trial,,,6409,1,1513,113,2023-01-10T20:01:45.314Z
tiger,rat,vulture,,41,feedback,,,2984,1,1514,114,2023-01-10T20:01:48.301Z
gentle,sad,to jump,gentle,,trial,,,15162,1,1582,115,2023-01-10T20:02:06.578Z
sad,gentle,a rat,a rat,,trial,,,2874,1,1583,116,2023-01-10T20:02:09.452Z
powerful,a rat,gentle,gentle,,trial,,,2724,1,1593,117,2023-01-10T20:02:12.177Z
cow,cougar,alligator,,68,feedback,,,3753,1,1603,118,2023-01-10T20:02:15.932Z
bad,stupid,to sit,bad,,trial,,,2463,1,1630,119,2023-01-10T20:02:20.868Z
stupid,bad,a worm,stupid,,trial,,,3126,1,1631,120,2023-01-10T20:02:23.994Z
gentle,green,meat,,70,feedback,,,5002,1,1632,121,2023-01-10T20:02:28.998Z
to lay,a spider,a pig,to lay,,trial,,,101391,1,1722,122,2023-01-10T20:04:12.272Z
a spider,to lay,thick,thick,,trial,,,2420,1,1723,123,2023-01-10T20:04:14.692Z
a chicken,thick,to lay,a chicken,,trial,,,2683,1,1733,124,2023-01-10T20:04:17.377Z
thick,a chicken,a crocodile,a crocodile,,trial,,,2725,1,1734,125,2023-01-10T20:04:20.100Z
a rat,a crocodile,a chicken,a chicken,,trial,,,2246,1,1744,126,2023-01-10T20:04:22.347Z
teach,vein,gift,,60,feedback,,,2978,1,1754,127,2023-01-10T20:04:25.325Z
cheap,cheap,a snake,cheap,,catch,,,1546,1,1793,128,2023-01-10T20:04:30.295Z
arm,nest,pillow,,34,feedback,,,4508,1,1794,129,2023-01-10T20:04:34.806Z
sick,nasty,a chicken,sick,,trial,,,2534,1,1798,130,2023-01-10T20:04:40.947Z
nasty,sick,a fish,nasty,,trial,,,2362,1,1799,131,2023-01-10T20:04:43.308Z
vein,ground,item,,77,feedback,,,4221,1,1800,132,2023-01-10T20:04:47.531Z
last,strong,thick,thick,,trial,,,10974,1,1818,133,2023-01-10T20:05:01.242Z
naked,thick,strong,strong,,trial,,,1532,1,1828,134,2023-01-10T20:05:02.774Z
lamb,beaver,lobster,,65,feedback,,,4396,1,1838,135,2023-01-10T20:05:07.173Z
a rabbit,bad,to crawl,to crawl,,trial,,,1824,1,1874,136,2023-01-10T20:05:10.856Z
nasty,to crawl,bad,bad,,trial,,,2376,1,1884,137,2023-01-10T20:05:13.230Z
chicken,cow,elephant,,19,feedback,,,5260,1,1894,138,2023-01-10T20:05:18.493Z
a wolf,cheap,a seal,a seal,,trial,,,4787,1,1911,139,2023-01-10T20:05:25.843Z
ripe,a seal,cheap,cheap,,trial,,,2248,1,1921,140,2023-01-10T20:05:28.090Z
dolphin,lamb,rooster,,8,feedback,,,3883,1,1931,141,2023-01-10T20:05:31.975Z
to dance,strong,strong,strong,,catch,,,1936,1,1950,142,2023-01-10T20:05:37.249Z
squirrel,seal,penguin,,13,feedback,,,7420,1,1960,143,2023-01-10T20:05:44.671Z
a seal,stupid,an elephant,a seal,,trial,,,2126,1,1968,144,2023-01-10T20:05:48.645Z
stupid,a seal,a lion,stupid,,trial,,,3591,1,1969,145,2023-01-10T20:05:52.236Z
business,forget,bother,,31,feedback,,,4367,1,1970,146,2023-01-10T20:05:56.605Z
a rat,to kick,a crocodile,a rat,,trial,,,6009,1,1973,147,2023-01-10T20:06:10.709Z
to kick,a rat,thick,to kick,,trial,,,2364,1,1974,148,2023-01-10T20:06:13.072Z
camel,cougar,alligator,,68,feedback,,,2471,1,1975,149,2023-01-10T20:06:15.545Z
a crow,to dive,full,full,,trial,,,5143,1,1999,150,2023-01-10T20:06:20.692Z
a frog,full,to dive,to dive,,trial,,,4591,1,2009,151,2023-01-10T20:06:25.284Z
dolphin,goat,chicken,,0,feedback,,,3554,1,2019,152,2023-01-10T20:06:28.839Z
deaf,to swim,a horse,a horse,,trial,,,5492,1,2028,153,2023-01-10T20:06:36.738Z
a pig,a horse,to swim,to swim,,trial,,,1655,1,2038,154,2023-01-10T20:06:38.394Z
sick,choose,country,,0,feedback,,,7556,1,2048,155,2023-01-10T20:06:45.953Z
a pig,last,nasty,a pig,,trial,,,5438,1,2048,156,2023-01-10T20:06:54.536Z
last,a pig,good,good,,trial,,,3515,1,2049,157,2023-01-10T20:06:58.053Z
to carry,good,a pig,to carry,,trial,,,2971,1,2059,158,2023-01-10T20:07:01.023Z
good,to carry,an elephant,an elephant,,trial,,,4648,1,2060,159,2023-01-10T20:07:05.670Z
a spider,an elephant,to carry,to carry,,trial,,,3086,1,2070,160,2023-01-10T20:07:08.756Z
grief,child,gentle,,18,feedback,,,2584,1,2080,161,2023-01-10T20:07:11.343Z
a rabbit,to carry,a rat,a rabbit,,trial,,,3424,1,2081,162,2023-01-10T20:07:18.675Z
to carry,a rabbit,a dog,a dog,,trial,,,2781,1,2082,163,2023-01-10T20:07:21.457Z
a lion,a dog,a rabbit,a lion,,trial,,,6525,1,2092,164,2023-01-10T20:07:27.981Z
a dog,a lion,a cow,a dog,,trial,,,2748,1,2093,165,2023-01-10T20:07:30.729Z
fawn,bat,rattlesnake,,25,feedback,,,7754,1,2094,166,2023-01-10T20:07:38.485Z
a worm,to sit,to sit,to sit,,catch,,,3022,1,2123,167,2023-01-10T20:07:43.289Z
knife,boot,story,,69,feedback,,,6634,1,2133,168,2023-01-10T20:07:49.924Z
a dolphin,a fox,a giraffe,a giraffe,,trial,,,2410,1,2160,169,2023-01-10T20:07:53.797Z
strong,a giraffe,a fox,strong,,trial,,,4370,1,2170,170,2023-01-10T20:07:58.166Z
a giraffe,strong,to sit,a giraffe,,trial,,,4746,1,2171,171,2023-01-10T20:08:02.912Z
caribou,beaver,alligator,,64,feedback,,,2345,1,2172,172,2023-01-10T20:08:05.260Z
cheap,a snake,to stand,cheap,,trial,,,6427,1,2219,173,2023-01-10T20:08:12.181Z
a snake,cheap,sad,sad,,trial,,,1995,1,2220,174,2023-01-10T20:08:14.177Z
naked,sad,cheap,cheap,,trial,,,1989,1,2230,175,2023-01-10T20:08:16.166Z
bat,seal,alligator,,31,feedback,,,3077,1,2240,176,2023-01-10T20:08:19.245Z
a turtle,to walk,to dive,to dive,,trial,,,5522,1,2275,177,2023-01-10T20:08:24.770Z
sad,to dive,to walk,to walk,,trial,,,1784,1,2285,178,2023-01-10T20:08:26.554Z
clothes,seek,reason,,12,feedback,,,2666,1,2295,179,2023-01-10T20:08:29.223Z
to duck,a tiger,a giraffe,a giraffe,,trial,,,2036,1,2304,180,2023-01-10T20:08:32.888Z
a spider,a giraffe,a tiger,a tiger,,trial,,,2484,1,2314,181,2023-01-10T20:08:35.372Z
mistake,country,choose,,26,feedback,,,4131,1,2324,182,2023-01-10T20:08:39.504Z
a pig,good,good,good,,catch,,,1532,1,2326,183,2023-01-10T20:08:47.308Z
cougar,dolphin,lobster,,30,feedback,,,3022,1,2336,184,2023-01-10T20:08:50.333Z
a frog,a lizard,a pig,a frog,,trial,,,6052,1,2374,185,2023-01-10T20:08:58.052Z
a lizard,a frog,a wolf,a lizard,,trial,,,4123,1,2375,186,2023-01-10T20:09:02.176Z
red,table,green,,25,feedback,,,6423,1,2376,187,2023-01-10T20:09:08.601Z
weak,a rat,to duck,weak,,trial,,,2615,1,2378,188,2023-01-10T20:09:16.719Z
a rat,weak,deaf,deaf,,trial,,,2348,1,2379,189,2023-01-10T20:09:19.068Z
beautiful,deaf,weak,weak,,trial,,,1966,1,2389,190,2023-01-10T20:09:21.034Z
speak,cheap,melt,,36,feedback,,,5310,1,2399,191,2023-01-10T20:09:26.346Z
ripe,a horse,good,good,,trial,,,20082,1,2422,192,2023-01-10T20:09:48.071Z
thick,good,a horse,a horse,,trial,,,1690,1,2432,193,2023-01-10T20:09:49.760Z
beaver,dog,chicken,,66,feedback,,,2724,1,2442,194,2023-01-10T20:09:52.486Z
a horse,empty,stupid,stupid,,trial,,,4038,1,2473,195,2023-01-10T20:09:57.894Z
a giraffe,stupid,empty,empty,,trial,,,1830,1,2483,196,2023-01-10T20:09:59.724Z
powerful,ladder,nose,,69,feedback,,,2993,1,2493,197,2023-01-10T20:10:02.722Z
empty,a squirrel,to climb,to climb,,trial,,,5196,1,2496,198,2023-01-10T20:10:09.896Z
stupid,to climb,a squirrel,a squirrel,,trial,,,1885,1,2506,199,2023-01-10T20:10:11.781Z
turtle,beaver,chimp,,33,feedback,,,2424,1,2516,200,2023-01-10T20:10:14.206Z
a crocodile,a zebra,beautiful,beautiful,,trial,,,7652,1,2557,201,2023-01-10T20:10:22.979Z
a lizard,beautiful,a zebra,a zebra,,trial,,,2111,1,2567,202,2023-01-10T20:10:25.089Z
lobster,seal,beaver,,72,feedback,,,2276,1,2577,203,2023-01-10T20:10:27.366Z
a pigeon,a lizard,ripe,a pigeon,,trial,,,3160,1,2656,204,2023-01-10T20:10:32.037Z
a lizard,a pigeon,a fox,a fox,,trial,,,3486,1,2657,205,2023-01-10T20:10:35.523Z
to dance,a fox,a pigeon,a pigeon,,trial,,,2636,1,2667,206,2023-01-10T20:10:38.159Z
coyote,camel,rattlesnake,,80,feedback,,,2769,1,2677,207,2023-01-10T20:10:40.929Z
a chicken,other,cheap,cheap,,trial,,,11673,1,2686,208,2023-01-10T20:10:53.989Z
to dance,cheap,other,other,,trial,,,3421,1,2696,209,2023-01-10T20:10:57.411Z
turtle,seal,mouse,,82,feedback,,,3216,1,2706,210,2023-01-10T20:11:00.627Z
stupid,ripe,a frog,a frog,,trial,,,3532,1,2725,211,2023-01-10T20:12:02.135Z
a crow,a frog,ripe,a crow,,trial,,,2298,1,2735,212,2023-01-10T20:12:04.433Z
a frog,a crow,a turtle,a turtle,,trial,,,4532,1,2736,213,2023-01-10T20:12:08.965Z
stupid,a turtle,a crow,a crow,,trial,,,4180,1,2746,214,2023-01-10T20:12:13.145Z
arm,message,forget,,85,feedback,,,4475,1,2756,215,2023-01-10T20:12:17.621Z
a rat,to run,to dance,a rat,,trial,,,2619,1,2817,216,2023-01-10T20:12:23.515Z
to run,a rat,to carry,to run,,trial,,,2452,1,2818,217,2023-01-10T20:12:25.966Z
coyote,seal,perch,,42,feedback,,,3425,1,2819,218,2023-01-10T20:12:29.393Z
a frog,thin,a giraffe,a giraffe,,trial,,,3008,1,2896,219,2023-01-10T20:12:33.940Z
clever,a giraffe,thin,thin,,trial,,,1765,1,2906,220,2023-01-10T20:12:35.706Z
gorilla,bat,rattlesnake,,50,feedback,,,5081,1,2916,221,2023-01-10T20:12:40.787Z
a squirrel,full,to climb,a squirrel,,trial,,,3180,1,2991,222,2023-01-10T20:12:45.009Z
full,a squirrel,weak,weak,,trial,,,2047,1,2992,223,2023-01-10T20:12:47.056Z
to hide,weak,a squirrel,to hide,,trial,,,3019,1,3002,224,2023-01-10T20:12:50.075Z
weak,to hide,a crow,weak,,trial,,,2776,1,3003,225,2023-01-10T20:12:52.851Z
rattlesnake,bat,pony,,55,feedback,,,4705,1,3004,226,2023-01-10T20:12:57.557Z
thick,a mosquito,a pig,a pig,,trial,,,5238,1,3069,227,2023-01-10T20:13:02.799Z
a fox,a pig,a mosquito,a fox,,trial,,,3012,1,3079,228,2023-01-10T20:13:05.811Z
a pig,a fox,to sit,to sit,,trial,,,3475,1,3080,229,2023-01-10T20:13:09.286Z
beautiful,to sit,a fox,a fox,,trial,,,3291,1,3090,230,2023-01-10T20:13:12.576Z
peacock,fawn,gorilla,,37,feedback,,,2542,1,3100,231,2023-01-10T20:13:15.121Z
to run,a giraffe,sick,to run,,trial,,,3126,1,3147,232,2023-01-10T20:13:18.251Z
a giraffe,to run,a worm,a worm,,trial,,,2893,1,3148,233,2023-01-10T20:13:21.144Z
fresh,a worm,to run,fresh,,trial,,,3071,1,3158,234,2023-01-10T20:13:24.215Z
a worm,fresh,a cat,a worm,,trial,,,2912,1,3159,235,2023-01-10T20:13:27.127Z
purple,disturb,dirt,,11,feedback,,,3854,1,3160,236,2023-01-10T20:13:30.983Z
famous,a spider,a fish,a fish,,trial,,,3230,1,3224,237,2023-01-10T20:13:37.586Z
a chicken,a fish,a spider,a chicken,,trial,,,3090,1,3234,238,2023-01-10T20:13:40.677Z
a fish,a chicken,empty,empty,,trial,,,3296,1,3235,239,2023-01-10T20:13:43.973Z
powerful,empty,a chicken,a chicken,,trial,,,1530,1,3245,240,2023-01-10T20:13:45.502Z
turkey,pony,cat,,74,feedback,,,3966,1,3255,241,2023-01-10T20:13:49.469Z
a nest,a spider,soft,soft,,trial,,,5092,1,3333,242,2023-01-10T20:13:55.633Z
a tiger,soft,a spider,a spider,,trial,,,2619,1,3343,243,2023-01-10T20:13:58.253Z
dog,goat,turkey,,71,feedback,,,2812,1,3353,244,2023-01-10T20:14:01.066Z
a snake,an octopus,stupid,a snake,,trial,,,2814,1,3373,245,2023-01-10T20:14:05.466Z
an octopus,a snake,to sit,an octopus,,trial,,,2922,1,3374,246,2023-01-10T20:14:08.389Z
rat,vulture,turkey,,39,feedback,,,4601,1,3375,247,2023-01-10T20:14:12.991Z
a cat,weak,a squirrel,a squirrel,,trial,,,2227,1,3393,248,2023-01-10T20:14:15.224Z
to lay,a squirrel,weak,weak,,trial,,,1740,1,3403,249,2023-01-10T20:14:16.963Z
hear,bother,forget,,100,feedback,,,3069,1,3413,250,2023-01-10T20:14:20.035Z
to walk,a cow,last,to walk,,trial,,,4062,1,3413,251,2023-01-10T20:14:26.566Z
a cow,to walk,a turtle,a cow,,trial,,,3289,1,3414,252,2023-01-10T20:14:29.855Z
,,,,,cap,completion_code,s53ddm1m52nmj,,1,3415,252,2023-01-10T20:14:47.780Z
