topword,middleword,bottomword,chosenword,percentage,trial_type,question,response,rt,session,points,trialnum,datetime
,,,,,demographic,automatic user agent check,"Mozilla/5.0 (Windows NT 10.0; Win64; x64) AppleWebKit/537.36 (KHTML, like Gecko) Chrome/102.0.5005.63 Safari/537.36",,1,0,,2022-06-01T05:37:02.787Z
to teach,a bed,a month,to teach,,trial,,,9544,1,0,2,2022-06-01T05:37:52.887Z
a bed,to teach,to sell,to sell,,trial,,,4917,1,1,3,2022-06-01T05:37:57.804Z
a grandfather,to sell,to teach,a grandfather,,trial,,,6490,1,11,4,2022-06-01T05:38:04.294Z
to sell,a grandfather, clever, clever,,trial,,,3804,1,12,5,2022-06-01T05:38:08.098Z
orange, clever,a grandfather,orange,,trial,,,3003,1,22,6,2022-06-01T05:38:11.101Z
 clever,orange, money, money,,trial,,,10273,1,23,7,2022-06-01T05:38:21.374Z
turkey,dog,coyote,,87,feedback,,,11659,1,33,8,2022-06-01T05:41:58.505Z
,,,,,demographic,what is your age?,32,8118,1,35,,2022-06-01T05:42:09.544Z
 naked, grief, weight, naked,,trial,,,2505,1,35,9,2022-06-01T05:42:12.061Z
 grief, naked, truth, truth,,trial,,,5978,1,36,10,2022-06-01T05:42:18.039Z
 noise, truth, naked, noise,,trial,,,3591,1,46,11,2022-06-01T05:42:21.630Z
 truth, noise, milk, milk,,trial,,,1916,1,47,12,2022-06-01T05:42:23.547Z
to add, milk, noise,to add,,trial,,,3382,1,57,13,2022-06-01T05:42:26.928Z
 milk,to add,an item,an item,,trial,,,2360,1,58,14,2022-06-01T05:42:29.288Z
dog,turkey,duck,,50,feedback,,,8655,1,68,15,2022-06-01T05:42:37.952Z
,,,,,demographic,what is your gender?,male,6275,1,93,,2022-06-01T05:42:56.422Z
 other,a leg,white, other,,trial,,,1400,1,93,16,2022-06-01T05:42:57.831Z
a leg, other,to forget,to forget,,trial,,,1654,1,94,17,2022-06-01T05:42:59.485Z
a picture,to forget, other,a picture,,trial,,,2229,1,104,18,2022-06-01T05:43:01.714Z
to forget,a picture,to deceive,to deceive,,trial,,,1374,1,105,19,2022-06-01T05:43:03.088Z
a mistake,to deceive,a picture,a mistake,,trial,,,1399,1,115,20,2022-06-01T05:43:04.487Z
to deceive,a mistake,a cheek,a cheek,,trial,,,1576,1,116,21,2022-06-01T05:43:06.063Z
lobster,dolphin,caribou,,50,feedback,,,61280,1,126,22,2022-06-01T05:44:07.353Z
,,,,,demographic,what languages do you speak?,English,12701,1,206,,2022-06-01T05:44:25.696Z
to eat,a thigh, other,to eat,,trial,,,1857,1,206,23,2022-06-01T05:44:27.564Z
a thigh,to eat,a shirt,a shirt,,trial,,,1460,1,207,24,2022-06-01T05:44:29.024Z
 hair,a shirt,to eat, hair,,trial,,,1914,1,217,25,2022-06-01T05:44:30.938Z
a shirt, hair,to speak,to speak,,trial,,,1264,1,218,26,2022-06-01T05:44:32.202Z
 week,to speak, hair, hair,,trial,,,1103,1,228,27,2022-06-01T05:44:33.305Z
crab,coyote,seal,,50,feedback,,,190392,1,238,28,2022-06-01T05:47:43.703Z
,,,,,demographic,what is the highest level ofeducation you have completed?,5_bachelor,50553,1,335,,2022-06-01T05:48:36.593Z
a collar,the ground,to disturb,a collar,,trial,,,1390,1,335,29,2022-06-01T05:48:37.987Z
the ground,a collar, hair, hair,,trial,,,1227,1,336,30,2022-06-01T05:48:39.214Z
to speak, hair,a collar,a collar,,trial,,,1674,1,346,31,2022-06-01T05:48:40.888Z
turtle,beaver,chimp,,50,feedback,,,39297,1,356,32,2022-06-01T05:49:20.191Z
,,,,,demographic,what is your first/native language?,English,17901,1,431,,2022-06-01T05:49:39.848Z
to carry, source,a pillow,to carry,,trial,,,1408,1,431,33,2022-06-01T05:49:41.263Z
 source,to carry, pain, pain,,trial,,,1139,1,432,34,2022-06-01T05:49:42.402Z
 weight, pain,to carry, weight,,trial,,,1234,1,442,35,2022-06-01T05:49:43.636Z
 pain, weight, clothes, clothes,,trial,,,1172,1,443,36,2022-06-01T05:49:44.808Z
 hair, clothes, weight, hair,,trial,,,1154,1,453,37,2022-06-01T05:49:45.962Z
 clothes, hair,to speak,to speak,,trial,,,1359,1,454,38,2022-06-01T05:49:47.321Z
coyote,seal,turtle,,50,feedback,,,234577,1,464,39,2022-06-01T05:53:41.908Z
,,,,,demographic,what country do you currently live in?,USA,33116,1,542,,2022-06-01T05:54:17.692Z
a teacher,a collar, source,a teacher,,trial,,,1641,1,542,40,2022-06-01T05:54:19.337Z
a collar,a teacher,to sell,to sell,,trial,,,1094,1,543,41,2022-06-01T05:54:20.431Z
to grow,to sell,a teacher,to grow,,trial,,,1126,1,553,42,2022-06-01T05:54:21.557Z
to sell,to grow,a roof,a roof,,trial,,,1153,1,554,43,2022-06-01T05:54:22.710Z
a nest,a roof,to grow,a nest,,trial,,,1014,1,564,44,2022-06-01T05:54:23.724Z
a roof,a nest,an arm,an arm,,trial,,,1249,1,565,45,2022-06-01T05:54:24.973Z
mouse,sheep,rooster,,50,feedback,,,1964,1,575,46,2022-06-01T05:54:26.945Z
,,,,,demographic,do you have any comments for us?,Good,24288,1,663,,2022-06-01T05:54:52.598Z
 soft,a heel,a shoe, soft,,trial,,,2347,1,663,47,2022-06-01T05:54:54.953Z
a heel, soft, grass, grass,,trial,,,1057,1,664,48,2022-06-01T05:54:56.010Z
a collar, grass, soft,a collar,,trial,,,1230,1,674,49,2022-06-01T05:54:57.240Z
 grass,a collar,a teacher,a teacher,,trial,,,2545,1,675,50,2022-06-01T05:54:59.785Z
to sell,a teacher,a collar,to sell,,trial,,,1955,1,685,51,2022-06-01T05:55:01.740Z
a teacher,to sell,to grow,to grow,,trial,,,1722,1,686,52,2022-06-01T05:55:03.462Z
frog,dolphin,elk,,50,feedback,,,81746,1,696,53,2022-06-01T05:56:25.215Z
 pain,to carry, clothes, pain,,trial,,,1743,1,782,54,2022-06-01T05:56:38.670Z
to carry, pain, weight, weight,,trial,,,1132,1,783,55,2022-06-01T05:56:39.802Z
a nose, weight, pain,a nose,,trial,,,994,1,793,56,2022-06-01T05:56:40.796Z
 weight,a nose,a ladder,a ladder,,trial,,,1134,1,794,57,2022-06-01T05:56:41.930Z
 powerful,a ladder,a nose, powerful,,trial,,,1088,1,804,58,2022-06-01T05:56:43.018Z
a ladder, powerful,to choose,to choose,,trial,,,1082,1,805,59,2022-06-01T05:56:44.100Z
vulture,tiger,rat,,50,feedback,,,33131,1,815,60,2022-06-01T05:57:17.241Z
a pillow,a reason,a box,a pillow,,trial,,,1280,1,906,61,2022-06-01T05:57:21.046Z
a reason,a pillow,brown,brown,,trial,,,1220,1,907,62,2022-06-01T05:57:22.266Z
 source,brown,a pillow, source,,trial,,,868,1,917,63,2022-06-01T05:57:23.134Z
brown, source,to carry,to carry,,trial,,,826,1,918,64,2022-06-01T05:57:23.960Z
 pain,to carry, source, pain,,trial,,,701,1,928,65,2022-06-01T05:57:24.661Z
to carry, pain, weight, weight,,trial,,,722,1,929,66,2022-06-01T05:57:25.383Z
seal,chicken,goat,,50,feedback,,,19269,1,939,67,2022-06-01T05:57:44.663Z
 people,to destroy,a grandfather, people,,trial,,,1308,1,1033,68,2022-06-01T05:57:48.780Z
to destroy, people,yellow,yellow,,trial,,,1246,1,1034,69,2022-06-01T05:57:50.026Z
a gift,yellow, people,a gift,,trial,,,1771,1,1044,70,2022-06-01T05:57:51.797Z
yellow,a gift,green,green,,trial,,,2215,1,1045,71,2022-06-01T05:57:54.012Z
a word,green,a gift,a word,,trial,,,1112,1,1055,72,2022-06-01T05:57:55.124Z
green,a word, weak, weak,,trial,,,914,1,1056,73,2022-06-01T05:57:56.038Z
dolphin,lobster,cougar,,50,feedback,,,10639,1,1066,74,2022-06-01T05:58:06.687Z
to choose, powerful,to hear,to choose,,trial,,,1467,1,1146,75,2022-06-01T05:58:09.978Z
 powerful,to choose,the ground,the ground,,trial,,,1292,1,1147,76,2022-06-01T05:58:11.270Z
 meat,the ground,to choose, meat,,trial,,,1079,1,1157,77,2022-06-01T05:58:12.349Z
the ground, meat, grief, grief,,trial,,,1099,1,1158,78,2022-06-01T05:58:13.448Z
 weight, grief, meat, weight,,trial,,,1023,1,1168,79,2022-06-01T05:58:14.471Z
 grief, weight, clothes, clothes,,trial,,,728,1,1169,80,2022-06-01T05:58:15.199Z
rooster,vulture,turtle,,50,feedback,,,56976,1,1179,81,2022-06-01T05:59:12.183Z
to grow,to sell,a grandfather,to grow,,trial,,,1195,1,1208,82,2022-06-01T05:59:21.824Z
to sell,to grow,a nose,a nose,,trial,,,899,1,1209,83,2022-06-01T05:59:22.723Z
a ladder,a nose,to grow,a ladder,,trial,,,1030,1,1219,84,2022-06-01T05:59:23.753Z
a nose,a ladder,a nest,a nest,,trial,,,1021,1,1220,85,2022-06-01T05:59:24.774Z
an arm,a nest,a ladder,an arm,,trial,,,3258,1,1230,86,2022-06-01T05:59:28.032Z
a nest,an arm,white,white,,trial,,,1006,1,1231,87,2022-06-01T05:59:29.038Z
cow,dolphin,alligator,,52,feedback,,,29376,1,1241,88,2022-06-01T05:59:58.423Z
purple,to disturb, cheap,purple,,trial,,,1021,1,1311,89,2022-06-01T06:00:01.499Z
to disturb,purple,a gift,a gift,,trial,,,1086,1,1312,90,2022-06-01T06:00:02.585Z
green,a gift,purple,green,,trial,,,728,1,1322,91,2022-06-01T06:00:03.313Z
a gift,green,to seek,to seek,,trial,,,830,1,1323,92,2022-06-01T06:00:04.143Z
a reason,to seek,green,a reason,,trial,,,675,1,1333,93,2022-06-01T06:00:04.818Z
to seek,a reason,a pillow,a pillow,,trial,,,1077,1,1334,94,2022-06-01T06:00:05.895Z
seal,camel,perch,,50,feedback,,,96127,1,1344,95,2022-06-01T06:01:42.031Z
a gift,blue,a word,a gift,,trial,,,5344,1,1441,96,2022-06-01T06:01:51.796Z
blue,a gift,green,green,,trial,,,2858,1,1442,97,2022-06-01T06:01:54.654Z
to seek,green,a gift,to seek,,trial,,,2303,1,1452,98,2022-06-01T06:01:56.957Z
green,to seek,a reason,a reason,,trial,,,3416,1,1453,99,2022-06-01T06:02:00.373Z
a pillow,a reason,to seek,a pillow,,trial,,,1215,1,1463,100,2022-06-01T06:02:01.588Z
a reason,a pillow,a month,a month,,trial,,,823,1,1464,101,2022-06-01T06:02:02.411Z
rooster,horse,rat,,50,feedback,,,96284,1,1474,102,2022-06-01T06:03:38.701Z
a heel, life,a vein,a heel,,trial,,,8957,1,1560,103,2022-06-01T06:03:50.863Z
 life,a heel,blue,blue,,trial,,,1062,1,1561,104,2022-06-01T06:03:51.925Z
a chair,blue,a heel,a chair,,trial,,,1056,1,1571,105,2022-06-01T06:03:52.981Z
blue,a chair,to teach,to teach,,trial,,,2538,1,1572,106,2022-06-01T06:03:55.519Z
a bed,to teach,a chair,a bed,,trial,,,1096,1,1582,107,2022-06-01T06:03:56.615Z
to teach,a bed,a month,a month,,trial,,,1099,1,1583,108,2022-06-01T06:03:57.714Z
crocodile,lion,bat,,50,feedback,,,59357,1,1593,109,2022-06-01T06:04:57.076Z
a business,a knife,to lose,a business,,trial,,,1189,1,1679,110,2022-06-01T06:05:04.669Z
a knife,a business,a vein,a vein,,trial,,,1246,1,1680,111,2022-06-01T06:05:05.915Z
 country,a vein,a business, country,,trial,,,928,1,1690,112,2022-06-01T06:05:06.843Z
a vein, country,yellow,yellow,,trial,,,936,1,1691,113,2022-06-01T06:05:07.779Z
a table,yellow, country,a table,,trial,,,822,1,1701,114,2022-06-01T06:05:08.601Z
yellow,a table,to arrive,to arrive,,trial,,,1616,1,1702,115,2022-06-01T06:05:10.217Z
crab,seal,cat,,50,feedback,,,593449,1,1712,116,2022-06-01T06:15:03.672Z
 soft,a heel,a shoe, soft,,trial,,,1449,1,1795,117,2022-06-01T06:15:08.737Z
a heel, soft, grass, grass,,trial,,,884,1,1796,118,2022-06-01T06:15:09.621Z
a collar, grass, soft,a collar,,trial,,,705,1,1806,119,2022-06-01T06:15:10.326Z
 grass,a collar, hair, hair,,trial,,,742,1,1807,120,2022-06-01T06:15:11.068Z
to speak, hair,a collar,to speak,,trial,,,799,1,1817,121,2022-06-01T06:15:11.867Z
 hair,to speak,a bed,a bed,,trial,,,740,1,1818,122,2022-06-01T06:15:12.607Z
cougar,dolphin,toad,,50,feedback,,,187776,1,1828,123,2022-06-01T06:18:20.392Z
a shirt,to eat,a boot,a shirt,,trial,,,1234,1,1925,124,2022-06-01T06:18:25.238Z
to eat,a shirt, hair, hair,,trial,,,991,1,1926,125,2022-06-01T06:18:26.229Z
to speak, hair,a shirt,to speak,,trial,,,834,1,1936,126,2022-06-01T06:18:27.063Z
 hair,to speak, week, week,,trial,,,808,1,1937,127,2022-06-01T06:18:27.871Z
 sick, week,to speak, sick,,trial,,,767,1,1947,128,2022-06-01T06:18:28.638Z
 week, sick,red,red,,trial,,,758,1,1948,129,2022-06-01T06:18:29.396Z
zebra,chicken,horse,,50,feedback,,,24732,1,1958,130,2022-06-01T06:18:54.136Z
a bed,to teach,to sell,a bed,,trial,,,1699,1,1981,131,2022-06-01T06:19:05.305Z
to teach,a bed,brown,brown,,trial,,,886,1,1982,132,2022-06-01T06:19:06.191Z
 source,brown,a bed, source,,trial,,,846,1,1992,133,2022-06-01T06:19:07.037Z
brown, source,to carry,to carry,,trial,,,821,1,1993,134,2022-06-01T06:19:07.858Z
 pain,to carry, source, pain,,trial,,,873,1,2003,135,2022-06-01T06:19:08.731Z
to carry, pain, weight, weight,,trial,,,1175,1,2004,136,2022-06-01T06:19:09.906Z
alligator,bat,pig,,50,feedback,,,1421831,1,2014,137,2022-06-01T06:42:51.750Z
to sell,a teacher,a bed,to sell,,trial,,,1310,1,2111,138,2022-06-01T06:43:02.810Z
a teacher,to sell,to grow,to grow,,trial,,,1246,1,2112,139,2022-06-01T06:43:04.056Z
a roof,to grow,to sell,a roof,,trial,,,955,1,2122,140,2022-06-01T06:43:05.011Z
to grow,a roof, powerful, powerful,,trial,,,732,1,2123,141,2022-06-01T06:43:05.743Z
to choose, powerful,a roof,to choose,,trial,,,1075,1,2133,142,2022-06-01T06:43:06.818Z
 powerful,to choose,the ground,the ground,,trial,,,810,1,2134,143,2022-06-01T06:43:07.628Z
pony,seal,perch,,50,feedback,,,1980,1,2144,144,2022-06-01T06:43:09.619Z
to melt,a boot,a shoe,to melt,,trial,,,1223,1,2235,145,2022-06-01T06:43:20.241Z
a boot,to melt, dirt, dirt,,trial,,,1017,1,2236,146,2022-06-01T06:43:21.258Z
to disturb, dirt,to melt,to disturb,,trial,,,849,1,2246,147,2022-06-01T06:43:22.107Z
 dirt,to disturb,purple,purple,,trial,,,756,1,2247,148,2022-06-01T06:43:22.863Z
a chair,purple,to disturb,a chair,,trial,,,865,1,2257,149,2022-06-01T06:43:23.728Z
purple,a chair,to teach,to teach,,trial,,,1143,1,2258,150,2022-06-01T06:43:24.871Z
caribou,beaver,alligator,,50,feedback,,,624655,1,2268,151,2022-06-01T06:53:49.535Z
to eat,a thigh, other,to eat,,trial,,,1827,1,2346,152,2022-06-01T06:53:51.373Z
a thigh,to eat,a shirt,a shirt,,trial,,,913,1,2347,153,2022-06-01T06:53:52.286Z
 hair,a shirt,to eat, hair,,trial,,,752,1,2357,154,2022-06-01T06:53:53.038Z
a shirt, hair,gray,gray,,trial,,,610,1,2358,155,2022-06-01T06:53:53.648Z
 famous,gray, hair, famous,,trial,,,502,1,2368,156,2022-06-01T06:53:54.150Z
gray, famous,to destroy,to destroy,,trial,,,549,1,2369,157,2022-06-01T06:53:54.699Z
lamb,rooster,rat,,50,feedback,,,434008,1,2379,158,2022-06-01T07:01:08.715Z
a month,a bed,brown,a month,,trial,,,1619,1,2470,159,2022-06-01T07:01:33.344Z
a bed,a month,to win,to win,,trial,,,972,1,2471,160,2022-06-01T07:01:34.316Z
a nose,to win,a month,a nose,,trial,,,1752,1,2481,161,2022-06-01T07:01:36.068Z
to win,a nose,a ladder,a ladder,,trial,,,869,1,2482,162,2022-06-01T07:01:36.937Z
 powerful,a ladder,a nose, powerful,,trial,,,722,1,2492,163,2022-06-01T07:01:37.659Z
a ladder, powerful,to hear,to hear,,trial,,,850,1,2493,164,2022-06-01T07:01:38.509Z
pony,dolphin,perch,,50,feedback,,,40300,1,2503,165,2022-06-01T07:02:18.821Z
 clothes, weight,a nose, clothes,,trial,,,1282,1,2581,166,2022-06-01T07:02:20.483Z
 weight, clothes,gray,gray,,trial,,,664,1,2582,167,2022-06-01T07:02:21.147Z
a word,gray, clothes,a word,,trial,,,473,1,2592,168,2022-06-01T07:02:21.620Z
gray,a word, weak, weak,,trial,,,443,1,2593,169,2022-06-01T07:02:22.063Z
 dish, weak,a word, dish,,trial,,,499,1,2603,170,2022-06-01T07:02:22.562Z
 weak, dish,a boot,a boot,,trial,,,468,1,2604,171,2022-06-01T07:02:23.030Z
rooster,pig,bat,,50,feedback,,,64478,1,2614,172,2022-06-01T07:03:27.513Z
a fish,to read, thick,a fish,,trial,,,1487,1,2702,173,2022-06-01T07:03:34.308Z
to read,a fish,a boot,a boot,,trial,,,757,1,2703,174,2022-06-01T07:03:35.065Z
blue,a boot,a fish,blue,,trial,,,542,1,2713,175,2022-06-01T07:03:35.607Z
a boot,blue,a word,a word,,trial,,,660,1,2714,176,2022-06-01T07:03:36.267Z
 weak,a word,blue, weak,,trial,,,513,1,2724,177,2022-06-01T07:03:36.780Z
a word, weak, memory, memory,,trial,,,813,1,2725,178,2022-06-01T07:03:37.593Z
elk,crab,dolphin,,39,feedback,,,57491,1,2735,179,2022-06-01T07:04:35.087Z
a roof,to grow,a nose,a roof,,trial,,,1165,1,2792,180,2022-06-01T07:04:36.258Z
to grow,a roof,a nest,a nest,,trial,,,882,1,2793,181,2022-06-01T07:04:37.140Z
an arm,a nest,a roof,an arm,,trial,,,638,1,2803,182,2022-06-01T07:04:37.778Z
a nest,an arm, other, other,,trial,,,772,1,2804,183,2022-06-01T07:04:38.550Z
to forget, other,an arm,to forget,,trial,,,551,1,2814,184,2022-06-01T07:04:39.101Z
 other,to forget,a picture,a picture,,trial,,,755,1,2815,185,2022-06-01T07:04:39.856Z
seal,perch,coyote,,50,feedback,,,11985,1,2825,186,2022-06-01T07:04:51.851Z
a toe,a story,a fish,a toe,,trial,,,1385,1,2925,187,2022-06-01T07:04:56.103Z
a story,a toe,a shoe,a story,,trial,,,882,1,2926,188,2022-06-01T07:04:56.985Z
perch,dolphin,lion,,52,feedback,,,19583,1,2927,189,2022-06-01T07:05:16.578Z
 memory, thick,a knife, memory,,trial,,,2640,1,3021,190,2022-06-01T07:05:19.626Z
 thick, memory,to know,to know,,trial,,,674,1,3022,191,2022-06-01T07:05:20.300Z
 life,to know, memory, life,,trial,,,501,1,3032,192,2022-06-01T07:05:20.801Z
to know, life,a heel,a heel,,trial,,,473,1,3033,193,2022-06-01T07:05:21.274Z
 soft,a heel, life, soft,,trial,,,455,1,3043,194,2022-06-01T07:05:21.729Z
a heel, soft, grass, grass,,trial,,,470,1,3044,195,2022-06-01T07:05:22.199Z
vulture,rooster,toad,,40,feedback,,,33791,1,3054,196,2022-06-01T07:05:55.995Z
white,a leg,to eat,to eat,,trial,,,2011,1,3073,197,2022-06-01T07:05:58.544Z
a shirt,to eat,a leg,a shirt,,trial,,,718,1,3083,198,2022-06-01T07:05:59.262Z
to eat,a shirt,gray,gray,,trial,,,677,1,3084,199,2022-06-01T07:05:59.939Z
 famous,gray,a shirt, famous,,trial,,,474,1,3094,200,2022-06-01T07:06:00.413Z
gray, famous,to destroy,to destroy,,trial,,,539,1,3095,201,2022-06-01T07:06:00.952Z
 people,to destroy, famous, people,,trial,,,437,1,3105,202,2022-06-01T07:06:01.389Z
turkey,lamb,elephant,,51,feedback,,,46691,1,3106,203,2022-06-01T07:06:48.088Z
a word,black,pink,a word,,trial,,,1209,1,3184,204,2022-06-01T07:06:55.032Z
black,a word, weak, weak,,trial,,,746,1,3185,205,2022-06-01T07:06:55.778Z
 dish, weak,a word, dish,,trial,,,527,1,3195,206,2022-06-01T07:06:56.305Z
 weak, dish, thin, thin,,trial,,,446,1,3196,207,2022-06-01T07:06:56.751Z
 memory, thin, dish, memory,,trial,,,457,1,3206,208,2022-06-01T07:06:57.208Z
 thin, memory,to know, thin,,trial,,,1041,1,3207,209,2022-06-01T07:06:58.249Z
turkey,vulture,rat,,0,feedback,,,4314,1,3208,210,2022-06-01T07:07:02.571Z
an arm,a nest,to steal,an arm,,trial,,,1266,1,3209,211,2022-06-01T07:07:07.224Z
a nest,an arm,white,white,,trial,,,782,1,3210,212,2022-06-01T07:07:08.006Z
a word,white,an arm,a word,,trial,,,668,1,3220,213,2022-06-01T07:07:08.674Z
white,a word, week, week,,trial,,,546,1,3221,214,2022-06-01T07:07:09.220Z
 sick, week,a word, sick,,trial,,,404,1,3231,215,2022-06-01T07:07:09.624Z
 week, sick,to bother,to bother,,trial,,,1113,1,3232,216,2022-06-01T07:07:10.737Z
rattlesnake,turtle,perch,,50,feedback,,,1702,1,3242,217,2022-06-01T07:07:12.445Z
orange, clever,to choose,orange,,trial,,,975,1,3322,218,2022-06-01T07:07:14.903Z
 clever,orange, money, money,,trial,,,629,1,3323,219,2022-06-01T07:07:15.532Z
a corner, money,orange,a corner,,trial,,,444,1,3333,220,2022-06-01T07:07:15.976Z
 money,a corner,a woman,a woman,,trial,,,456,1,3334,221,2022-06-01T07:07:16.432Z
a message,a woman,a corner,a message,,trial,,,469,1,3344,222,2022-06-01T07:07:16.901Z
a woman,a message,a story,a story,,trial,,,358,1,3345,223,2022-06-01T07:07:17.259Z
tiger,dolphin,rattlesnake,,51,feedback,,,44320,1,3355,224,2022-06-01T07:08:01.586Z
to hear, power,to choose,to hear,,trial,,,1467,1,3446,225,2022-06-01T07:08:03.513Z
 power,to hear, life, life,,trial,,,1222,1,3447,226,2022-06-01T07:08:04.734Z
a vein, life,to hear,a vein,,trial,,,743,1,3457,227,2022-06-01T07:08:05.477Z
 life,a vein, country, country,,trial,,,578,1,3458,228,2022-06-01T07:08:06.055Z
a cloud, country,a vein,a cloud,,trial,,,712,1,3468,229,2022-06-01T07:08:06.767Z
 country,a cloud,black,black,,trial,,,536,1,3469,230,2022-06-01T07:08:07.303Z
crocodile,peacock,iguana,,50,feedback,,,56116,1,3479,231,2022-06-01T07:09:03.426Z
to know, memory, naked,to know,,trial,,,1233,1,3509,232,2022-06-01T07:09:05.172Z
 memory,to know, life, life,,trial,,,772,1,3510,233,2022-06-01T07:09:05.944Z
a vein, life,to know,a vein,,trial,,,519,1,3520,234,2022-06-01T07:09:06.463Z
 life,a vein, country, country,,trial,,,441,1,3521,235,2022-06-01T07:09:06.904Z
yellow, country,a vein,yellow,,trial,,,393,1,3531,236,2022-06-01T07:09:07.297Z
 country,yellow,a gift, country,,trial,,,885,1,3532,237,2022-06-01T07:09:08.182Z
chicken,goat,dolphin,,50,feedback,,,7864,1,3533,238,2022-06-01T07:09:16.055Z
to win,a month, sick, sick,,trial,,,1560,1,3616,239,2022-06-01T07:09:18.356Z
to bother, sick,a month,to bother,,trial,,,1392,1,3626,240,2022-06-01T07:09:19.748Z
 sick,to bother, cheap, cheap,,trial,,,1115,1,3627,241,2022-06-01T07:09:20.863Z
 gentle, cheap,to bother, gentle,,trial,,,464,1,3637,242,2022-06-01T07:09:21.327Z
 cheap, gentle, grass, cheap,,trial,,,891,1,3638,243,2022-06-01T07:09:22.218Z
dolphin,iguana,coyote,,50,feedback,,,15805,1,3639,244,2022-06-01T07:09:38.036Z
a heel, life,a vein,a heel,,trial,,,1230,1,3722,245,2022-06-01T07:09:39.694Z
 life,a heel,a shoe,a shoe,,trial,,,677,1,3723,246,2022-06-01T07:09:40.371Z
to melt,a shoe,a heel,to melt,,trial,,,472,1,3733,247,2022-06-01T07:09:40.843Z
a shoe,to melt, dirt, dirt,,trial,,,548,1,3734,248,2022-06-01T07:09:41.391Z
to disturb, dirt,to melt,to disturb,,trial,,,387,1,3744,249,2022-06-01T07:09:41.778Z
 dirt,to disturb,purple,purple,,trial,,,491,1,3745,250,2022-06-01T07:09:42.269Z
duck,caribou,camel,,50,feedback,,,29407,1,3755,251,2022-06-01T07:10:11.686Z
,,,,,cap,completion_code,exavzm1mi61kl,,1,3782,251,2022-06-01T07:10:53.810Z
 meat,the ground,a collar, meat,,trial,,,4543,1,3782,253,2022-06-01T07:10:58.360Z
the ground, meat,a boot,a boot,,trial,,,559,1,3783,254,2022-06-01T07:10:58.919Z
blue,a boot, meat,blue,,trial,,,433,1,3793,255,2022-06-01T07:10:59.352Z
a boot,blue,a word,a word,,trial,,,454,1,3794,256,2022-06-01T07:10:59.806Z
 weak,a word,blue, weak,,trial,,,447,1,3804,257,2022-06-01T07:11:00.253Z
a word, weak, dish, dish,,trial,,,370,1,3805,258,2022-06-01T07:11:00.623Z
rooster,pony,horse,,50,feedback,,,1520,1,3815,259,2022-06-01T07:11:02.148Z
 weight, pain, naked, weight,,trial,,,1095,1,3833,260,2022-06-01T07:11:05.232Z
 pain, weight, clothes, clothes,,trial,,,471,1,3834,261,2022-06-01T07:11:05.703Z
gray, clothes, weight,gray,,trial,,,419,1,3844,262,2022-06-01T07:11:06.122Z
 clothes,gray, famous, famous,,trial,,,413,1,3845,263,2022-06-01T07:11:06.535Z
to destroy, famous,gray,to destroy,,trial,,,435,1,3855,264,2022-06-01T07:11:06.970Z
 famous,to destroy,a grandfather,a grandfather,,trial,,,394,1,3856,265,2022-06-01T07:11:07.364Z
penguin,vulture,seal,,50,feedback,,,9288,1,3866,266,2022-06-01T07:11:16.661Z
a knife,to melt, dirt,a knife,,trial,,,991,1,3960,267,2022-06-01T07:11:20.960Z
to melt,a knife,a business,to melt,,trial,,,1039,1,3961,268,2022-06-01T07:11:21.999Z
turtle,seal,elk,,49,feedback,,,2150,1,3962,269,2022-06-01T07:11:24.165Z
 sad,to win,a nose, sad,,trial,,,1060,1,4040,270,2022-06-01T07:11:27.453Z
to win, sad,red,red,,trial,,,491,1,4041,271,2022-06-01T07:11:27.944Z
pink,red, sad,pink,,trial,,,391,1,4051,272,2022-06-01T07:11:28.335Z
red,pink,a shelf,red,,trial,,,1169,1,4052,273,2022-06-01T07:11:29.504Z
chicken,duck,caribou,,50,feedback,,,21330,1,4053,274,2022-06-01T07:11:50.842Z
 other,an arm,to eat, other,,trial,,,1465,1,4078,275,2022-06-01T07:11:56.234Z
an arm, other,to forget,to forget,,trial,,,290,1,4079,276,2022-06-01T07:11:56.524Z
 life,to forget, other, life,,trial,,,464,1,4089,277,2022-06-01T07:11:56.988Z
to forget, life,a heel,to forget,,trial,,,742,1,4090,278,2022-06-01T07:11:57.730Z
camel,alligator,seal,,50,feedback,,,52658,1,4091,279,2022-06-01T07:12:50.393Z
a nose,to lose, sad,a nose,,trial,,,1215,1,4169,280,2022-06-01T07:12:52.049Z
to lose,a nose,a ladder,a ladder,,trial,,,576,1,4170,281,2022-06-01T07:12:52.625Z
 powerful,a ladder,a nose, powerful,,trial,,,422,1,4180,282,2022-06-01T07:12:53.047Z
a ladder, powerful,to choose,to choose,,trial,,,360,1,4181,283,2022-06-01T07:12:53.407Z
the ground,to choose, powerful,the ground,,trial,,,365,1,4191,284,2022-06-01T07:12:53.772Z
to choose,the ground, meat, meat,,trial,,,333,1,4192,285,2022-06-01T07:12:54.105Z
chicken,chimp,goat,,50,feedback,,,9681,1,4202,286,2022-06-01T07:13:03.795Z
to destroy, famous,to choose,to destroy,,trial,,,3987,1,4285,287,2022-06-01T07:13:10.823Z
 famous,to destroy, people, people,,trial,,,575,1,4286,288,2022-06-01T07:13:11.398Z
yellow, people,to destroy,yellow,,trial,,,433,1,4296,289,2022-06-01T07:13:11.831Z
 people,yellow,a gift,a gift,,trial,,,428,1,4297,290,2022-06-01T07:13:12.259Z
green,a gift,yellow,green,,trial,,,376,1,4307,291,2022-06-01T07:13:12.635Z
a gift,green,to seek,to seek,,trial,,,396,1,4308,292,2022-06-01T07:13:13.031Z
toad,seal,lamb,,50,feedback,,,1565,1,4318,293,2022-06-01T07:13:14.606Z
 life, people,yellow, life,,trial,,,929,1,4415,294,2022-06-01T07:13:19.493Z
 people, life,a heel,a heel,,trial,,,441,1,4416,295,2022-06-01T07:13:19.934Z
a shoe,a heel, life,a shoe,,trial,,,421,1,4426,296,2022-06-01T07:13:20.355Z
a heel,a shoe,to melt,a heel,,trial,,,908,1,4427,297,2022-06-01T07:13:21.263Z
chicken,goat,lion,,47,feedback,,,1631,1,4428,298,2022-06-01T07:13:22.905Z
a woman,a corner,a thigh,a woman,,trial,,,888,1,4511,299,2022-06-01T07:13:25.685Z
a corner,a woman,a message,a message,,trial,,,383,1,4512,300,2022-06-01T07:13:26.068Z
to deceive,a message,a woman,to deceive,,trial,,,377,1,4522,301,2022-06-01T07:13:26.445Z
a message,to deceive,a mistake,a mistake,,trial,,,360,1,4523,302,2022-06-01T07:13:26.805Z
a cheek,a mistake,to deceive,a cheek,,trial,,,367,1,4533,303,2022-06-01T07:13:27.172Z
a mistake,a cheek, under, under,,trial,,,344,1,4534,304,2022-06-01T07:13:27.516Z
peacock,seal,zebra,,50,feedback,,,31115,1,4544,305,2022-06-01T07:13:58.635Z
 under,a cheek,a ladder, under,,trial,,,1289,1,4624,306,2022-06-01T07:14:02.594Z
a cheek, under, chest, chest,,trial,,,544,1,4625,307,2022-06-01T07:14:03.138Z
to read, chest, under,to read,,trial,,,381,1,4635,308,2022-06-01T07:14:03.519Z
 chest,to read,a fish,a fish,,trial,,,331,1,4636,309,2022-06-01T07:14:03.850Z
a boot,a fish,to read,to read,,trial,,,718,1,4646,310,2022-06-01T07:14:04.568Z
turkey,seal,penguin,,50,feedback,,,43282,1,4656,311,2022-06-01T07:14:47.857Z
a box,to forget,a picture,a box,,trial,,,1076,1,4742,312,2022-06-01T07:15:04.619Z
to forget,a box,to steal,to steal,,trial,,,588,1,4743,313,2022-06-01T07:15:05.207Z
a grandfather,to steal,a box,a grandfather,,trial,,,497,1,4753,314,2022-06-01T07:15:05.704Z
to steal,a grandfather, clever, clever,,trial,,,488,1,4754,315,2022-06-01T07:15:06.192Z
orange, clever,a grandfather,a grandfather,,trial,,,887,1,4764,316,2022-06-01T07:15:07.079Z
bat,bear,crocodile,,50,feedback,,,1606,1,4774,317,2022-06-01T07:15:08.692Z
to win,a month, sick,to win,,trial,,,1108,1,4871,318,2022-06-01T07:15:10.320Z
a month,to win, sad, sad,,trial,,,447,1,4872,319,2022-06-01T07:15:10.767Z
red, sad,to win,red,,trial,,,437,1,4882,320,2022-06-01T07:15:11.204Z
 sad,red,a gift,a gift,,trial,,,410,1,4883,321,2022-06-01T07:15:11.614Z
green,a gift,red,green,,trial,,,327,1,4893,322,2022-06-01T07:15:11.941Z
a gift,green,to seek,a gift,,trial,,,783,1,4894,323,2022-06-01T07:15:12.724Z
dolphin,lamb,rooster,,50,feedback,,,2310,1,4895,324,2022-06-01T07:15:15.038Z
a gift,red,a word,a gift,,trial,,,924,1,4995,325,2022-06-01T07:15:17.510Z
red,a gift,green,red,,trial,,,1865,1,4996,326,2022-06-01T07:15:19.375Z
deer,dolphin,frog,,50,feedback,,,1457,1,4997,327,2022-06-01T07:15:20.837Z
to read, chest,to eat,to read,,trial,,,991,1,5091,328,2022-06-01T07:15:22.991Z
 chest,to read,a fish, chest,,trial,,,1871,1,5092,329,2022-06-01T07:15:24.862Z
alligator,bat,caribou,,50,feedback,,,25670,1,5093,330,2022-06-01T07:15:50.538Z
a fish,a story,a toe,a fish,,trial,,,1254,1,5187,331,2022-06-01T07:15:55.320Z
a story,a fish, grief, grief,,trial,,,476,1,5188,332,2022-06-01T07:15:55.796Z
 naked, grief,a fish,a fish,,trial,,,2102,1,5198,333,2022-06-01T07:15:57.898Z
deer,alligator,bat,,51,feedback,,,38084,1,5208,334,2022-06-01T07:16:35.988Z
 milk, noise,purple, milk,,trial,,,1964,1,5299,335,2022-06-01T07:16:38.421Z
 noise, milk,to add,to add,,trial,,,681,1,5300,336,2022-06-01T07:16:39.102Z
an item,to add, milk, milk,,trial,,,1733,1,5310,337,2022-06-01T07:16:40.835Z
chicken,horse,dolphin,,50,feedback,,,1638,1,5320,338,2022-06-01T07:16:42.498Z
a ladder,a nose, under,a ladder,,trial,,,1372,1,5417,339,2022-06-01T07:16:45.227Z
a nose,a ladder, powerful, powerful,,trial,,,966,1,5418,340,2022-06-01T07:16:46.193Z
to choose, powerful,a ladder,to choose,,trial,,,793,1,5428,341,2022-06-01T07:16:46.986Z
 powerful,to choose,the ground,the ground,,trial,,,930,1,5429,342,2022-06-01T07:16:47.916Z
 meat,the ground,to choose, meat,,trial,,,2288,1,5439,343,2022-06-01T07:16:50.204Z
the ground, meat,a boot,a boot,,trial,,,999,1,5440,344,2022-06-01T07:16:51.203Z
fawn,rattlesnake,bat,,50,feedback,,,21655,1,5450,345,2022-06-01T07:17:12.864Z
to steal,a box,a thigh,to steal,,trial,,,1270,1,5528,346,2022-06-01T07:17:14.587Z
a box,to steal,a grandfather,a grandfather,,trial,,,427,1,5529,347,2022-06-01T07:17:15.014Z
 clever,a grandfather,to steal, clever,,trial,,,401,1,5539,348,2022-06-01T07:17:15.415Z
a grandfather, clever,to choose,a grandfather,,trial,,,905,1,5540,349,2022-06-01T07:17:16.320Z
cougar,rattlesnake,bat,,50,feedback,,,11655,1,5541,350,2022-06-01T07:17:27.981Z
a table,white, source,a table,,trial,,,1726,1,5619,351,2022-06-01T07:17:33.449Z
white,a table,to arrive,to arrive,,trial,,,892,1,5620,352,2022-06-01T07:17:34.341Z
a needle,to arrive,a table,a needle,,trial,,,467,1,5630,353,2022-06-01T07:17:34.808Z
to arrive,a needle,a business,a business,,trial,,,744,1,5631,354,2022-06-01T07:17:35.552Z
 child,a business,a needle, child,,trial,,,415,1,5641,355,2022-06-01T07:17:35.967Z
a business, child,a leg,a leg,,trial,,,717,1,5642,356,2022-06-01T07:17:36.684Z
gorilla,chicken,sheep,,50,feedback,,,24172,1,5652,357,2022-06-01T07:18:00.860Z
a pillow,a reason,a box,a pillow,,trial,,,1165,1,5743,358,2022-06-01T07:18:02.540Z
a reason,a pillow,brown,brown,,trial,,,368,1,5744,359,2022-06-01T07:18:02.908Z
 power,brown,a pillow,a pillow,,trial,,,736,1,5754,360,2022-06-01T07:18:03.644Z
frog,cougar,seal,,50,feedback,,,30220,1,5764,361,2022-06-01T07:18:33.868Z
to disturb, dirt,a collar,to disturb,,trial,,,1128,1,5861,362,2022-06-01T07:18:35.404Z
 dirt,to disturb,purple,purple,,trial,,,416,1,5862,363,2022-06-01T07:18:35.820Z
a shelf,purple,to disturb,a shelf,,trial,,,937,1,5872,364,2022-06-01T07:18:36.757Z
purple,a shelf,a thigh,a thigh,,trial,,,535,1,5873,365,2022-06-01T07:18:37.292Z
to eat,a thigh,a shelf,to eat,,trial,,,864,1,5883,366,2022-06-01T07:18:38.156Z
a thigh,to eat,a boot,a boot,,trial,,,332,1,5884,367,2022-06-01T07:18:38.488Z
duck,chicken,crocodile,,54,feedback,,,4072,1,5894,368,2022-06-01T07:18:42.563Z
to teach,a table,to arrive,to teach,,trial,,,1110,1,5924,369,2022-06-01T07:18:44.229Z
a table,to teach,a bed,a bed,,trial,,,422,1,5925,370,2022-06-01T07:18:44.651Z
brown,a bed,to teach,brown,,trial,,,1001,1,5935,371,2022-06-01T07:18:45.652Z
a bed,brown, power, power,,trial,,,464,1,5936,372,2022-06-01T07:18:46.116Z
to hear, power,brown,to hear,,trial,,,1175,1,5946,373,2022-06-01T07:18:47.291Z
 power,to hear, life, life,,trial,,,1039,1,5947,374,2022-06-01T07:18:48.330Z
toad,rat,gorilla,,50,feedback,,,55507,1,5957,375,2022-06-01T07:19:43.842Z
a story,a message,to deceive,a story,,trial,,,1250,1,6048,376,2022-06-01T07:19:48.910Z
a message,a story,a toe,a toe,,trial,,,1007,1,6049,377,2022-06-01T07:19:49.917Z
a shoe,a toe,a story,a shoe,,trial,,,1001,1,6059,378,2022-06-01T07:19:50.918Z
a toe,a shoe,to melt,to melt,,trial,,,568,1,6060,379,2022-06-01T07:19:51.486Z
 dirt,to melt,a shoe,a shoe,,trial,,,1416,1,6070,380,2022-06-01T07:19:52.902Z
duck,caribou,bat,,50,feedback,,,30718,1,6080,381,2022-06-01T07:20:23.628Z
to choose, power,to hear,to choose,,trial,,,1663,1,6171,382,2022-06-01T07:20:26.817Z
 power,to choose,the ground,the ground,,trial,,,400,1,6172,383,2022-06-01T07:20:27.217Z
 meat,the ground,to choose, meat,,trial,,,419,1,6182,384,2022-06-01T07:20:27.636Z
the ground, meat,a boot,a boot,,trial,,,288,1,6183,385,2022-06-01T07:20:27.924Z
blue,a boot, meat, meat,,trial,,,606,1,6193,386,2022-06-01T07:20:28.530Z
alligator,iguana,coyote,,50,feedback,,,2332,1,6203,387,2022-06-01T07:20:30.872Z
 sad,to win,a nose, sad,,trial,,,1031,1,6233,388,2022-06-01T07:20:33.295Z
to win, sad,red,red,,trial,,,328,1,6234,389,2022-06-01T07:20:33.623Z
pink,red, sad, sad,,trial,,,640,1,6244,390,2022-06-01T07:20:34.263Z
bat,rattlesnake,gorilla,,50,feedback,,,14402,1,6254,391,2022-06-01T07:20:48.670Z
to hear, power,to choose,to hear,,trial,,,1691,1,6329,392,2022-06-01T07:20:50.375Z
 power,to hear, thick, thick,,trial,,,388,1,6330,393,2022-06-01T07:20:50.763Z
 memory, thick,to hear, memory,,trial,,,407,1,6340,394,2022-06-01T07:20:51.170Z
 thick, memory,to know, thick,,trial,,,675,1,6341,395,2022-06-01T07:20:51.845Z
cougar,dolphin,turtle,,0,feedback,,,2273,1,6342,396,2022-06-01T07:20:54.124Z
 life,to bother, cheap, life,,trial,,,1209,1,6361,397,2022-06-01T07:20:58.013Z
to bother, life,a heel,to bother,,trial,,,2225,1,6362,398,2022-06-01T07:21:00.238Z
chicken,dog,bat,,50,feedback,,,5658,1,6363,399,2022-06-01T07:21:05.904Z
yellow, other,to forget,yellow,,trial,,,1025,1,6446,400,2022-06-01T07:21:08.370Z
 other,yellow,a shelf,a shelf,,trial,,,769,1,6447,401,2022-06-01T07:21:09.139Z
a thigh,a shelf,yellow,a thigh,,trial,,,390,1,6457,402,2022-06-01T07:21:09.529Z
a shelf,a thigh, other,a shelf,,trial,,,865,1,6458,403,2022-06-01T07:21:10.394Z
crab,dolphin,chimp,,52,feedback,,,21527,1,6459,404,2022-06-01T07:21:31.926Z
 soft,a toe,a shoe, soft,,trial,,,1076,1,6547,405,2022-06-01T07:21:33.729Z
a toe, soft, grass,a toe,,trial,,,1684,1,6548,406,2022-06-01T07:21:35.413Z
pony,rattlesnake,bat,,6,feedback,,,20509,1,6549,407,2022-06-01T07:21:55.925Z
a thigh,a shelf,to arrive,a thigh,,trial,,,1117,1,6560,408,2022-06-01T07:22:07.828Z
a shelf,a thigh,to eat,to eat,,trial,,,461,1,6561,409,2022-06-01T07:22:08.289Z
 grief,to eat,a thigh, grief,,trial,,,259,1,6571,410,2022-06-01T07:22:08.548Z
to eat, grief, weight, weight,,trial,,,341,1,6572,411,2022-06-01T07:22:08.889Z
 clothes, weight, grief, clothes,,trial,,,358,1,6582,412,2022-06-01T07:22:09.247Z
 weight, clothes,gray,gray,,trial,,,300,1,6583,413,2022-06-01T07:22:09.547Z
elk,peacock,zebra,,36,feedback,,,46982,1,6593,414,2022-06-01T07:22:56.536Z
a cheek,a pillow,a pillow,a pillow,,catch,,,313,1,6646,415,2022-06-01T07:22:57.277Z
lobster,dolphin,elephant,,50,feedback,,,26443,1,6656,416,2022-06-01T07:23:23.727Z
black,a cloud, famous,black,,trial,,,1189,1,6750,417,2022-06-01T07:23:28.930Z
a cloud,black,pink,pink,,trial,,,483,1,6751,418,2022-06-01T07:23:29.413Z
a shelf,pink,black,a shelf,,trial,,,248,1,6761,419,2022-06-01T07:23:29.661Z
pink,a shelf,a thigh,a thigh,,trial,,,382,1,6762,420,2022-06-01T07:23:30.043Z
 other,a thigh,a shelf,a shelf,,trial,,,686,1,6772,421,2022-06-01T07:23:30.729Z
pig,rooster,gorilla,,3,feedback,,,5174,1,6782,422,2022-06-01T07:23:35.912Z
to melt,a shoe, soft,to melt,,trial,,,1009,1,6801,423,2022-06-01T07:23:37.583Z
a shoe,to melt, dirt, dirt,,trial,,,381,1,6802,424,2022-06-01T07:23:37.964Z
to disturb, dirt,to melt,to disturb,,trial,,,328,1,6812,425,2022-06-01T07:23:38.292Z
 dirt,to disturb,purple, dirt,,trial,,,741,1,6813,426,2022-06-01T07:23:39.033Z
gorilla,fawn,crocodile,,44,feedback,,,6338,1,6814,427,2022-06-01T07:23:45.380Z
a word,green,to seek,a word,,trial,,,1644,1,6914,428,2022-06-01T07:23:47.457Z
green,a word, weak, weak,,trial,,,820,1,6915,429,2022-06-01T07:23:48.277Z
 dish, weak,a word, dish,,trial,,,1017,1,6925,430,2022-06-01T07:23:49.294Z
 weak, dish, thin, thin,,trial,,,744,1,6926,431,2022-06-01T07:23:50.038Z
 memory, thin, dish, memory,,trial,,,808,1,6936,432,2022-06-01T07:23:50.846Z
 thin, memory,to know,to know,,trial,,,295,1,6937,433,2022-06-01T07:23:51.141Z
pig,tiger,alligator,,50,feedback,,,1402,1,6947,434,2022-06-01T07:23:52.549Z
 sick,a month,to win,to win,,trial,,,1043,1,7030,435,2022-06-01T07:23:54.372Z
 sad,to win,a month, sad,,trial,,,1034,1,7040,436,2022-06-01T07:23:55.406Z
to win, sad,red,red,,trial,,,1293,1,7041,437,2022-06-01T07:23:56.699Z
a word,red, sad, sad,,trial,,,1143,1,7051,438,2022-06-01T07:23:57.842Z
peacock,horse,fawn,,50,feedback,,,1297,1,7061,439,2022-06-01T07:23:59.150Z
 clothes, weight,a nose, clothes,,trial,,,1191,1,7091,440,2022-06-01T07:24:00.895Z
 weight, clothes,gray,gray,,trial,,,514,1,7092,441,2022-06-01T07:24:01.409Z
a word,gray, clothes,a word,,trial,,,791,1,7102,442,2022-06-01T07:24:02.200Z
gray,a word, weak, weak,,trial,,,738,1,7103,443,2022-06-01T07:24:02.938Z
 dish, weak,a word, dish,,trial,,,505,1,7113,444,2022-06-01T07:24:03.443Z
 weak, dish, thin, thin,,trial,,,722,1,7114,445,2022-06-01T07:24:04.165Z
