topword,middleword,bottomword,chosenword,percentage,trial_type,question,response,rt,session,points,trialnum,datetime
,,,,,demographic,automatic user agent check,Mozilla/5.0 (Windows NT 10.0; Win64; x64; rv:101.0) Gecko/20100101 Firefox/101.0,,1,0,,2022-06-01T04:33:49.536Z
 dish, thick, weak, weak,,trial,,,5363,1,0,2,2022-06-01T04:39:33.409Z
 dirt, weak, thick, dirt,,trial,,,591,1,10,3,2022-06-01T04:39:33.999Z
 weak, dirt,a cloud,a cloud,,trial,,,1249,1,11,4,2022-06-01T04:39:35.248Z
 grass,a cloud, dirt, grass,,trial,,,934,1,21,5,2022-06-01T04:39:36.182Z
a cloud, grass,purple,purple,,trial,,,1168,1,22,6,2022-06-01T04:39:37.351Z
to know,purple, grass,to know,,trial,,,728,1,32,7,2022-06-01T04:39:38.080Z
rooster,vulture,turtle,,55,feedback,,,1086,1,33,8,2022-06-01T04:39:40.333Z
,,,,,demographic,what is your age?,25,3016,1,69,,2022-06-01T04:39:44.463Z
 sad, grief,to teach, sad,,trial,,,2496,1,69,9,2022-06-01T04:39:46.959Z
 grief, sad, chest, grief,,trial,,,1928,1,70,10,2022-06-01T04:39:48.888Z
alligator,bat,caribou,,89,feedback,,,2900,1,71,11,2022-06-01T04:39:51.791Z
,,,,,demographic,what is your gender?,male,5039,1,92,,2022-06-01T04:40:03.423Z
 country,a needle,a cheek, country,,trial,,,2272,1,92,12,2022-06-01T04:40:05.695Z
a needle, country,a corner,a needle,,trial,,,7784,1,93,13,2022-06-01T04:40:13.480Z
rooster,pig,gorilla,,100,feedback,,,2203,1,94,14,2022-06-01T04:40:15.688Z
,,,,,demographic,what languages do you speak?,English,5792,1,104,,2022-06-01T04:40:26.671Z
a gift, naked, other,a gift,,trial,,,5033,1,104,15,2022-06-01T04:40:31.705Z
 naked,a gift, gentle, gentle,,trial,,,2118,1,105,16,2022-06-01T04:40:33.823Z
red, gentle,a gift,a gift,,trial,,,1968,1,115,17,2022-06-01T04:40:35.791Z
dolphin,horse,chicken,,0,feedback,,,2649,1,125,18,2022-06-01T04:40:38.443Z
,,,,,demographic,what is the highest level ofeducation you have completed?,5_bachelor,2368,1,138,,2022-06-01T04:40:40.814Z
a chair,an arm, thick,a chair,,trial,,,4111,1,138,19,2022-06-01T04:40:44.926Z
an arm,a chair, child, child,,trial,,,1066,1,139,20,2022-06-01T04:40:45.992Z
to destroy, child,a chair,to destroy,,trial,,,1310,1,149,21,2022-06-01T04:40:47.302Z
 child,to destroy,to bother,to bother,,trial,,,1720,1,150,22,2022-06-01T04:40:49.023Z
pink,to bother,to destroy,pink,,trial,,,1568,1,160,23,2022-06-01T04:40:50.591Z
to bother,pink,to lose,to lose,,trial,,,776,1,161,24,2022-06-01T04:40:51.367Z
elk,zebra,peacock,,100,feedback,,,1924,1,171,25,2022-06-01T04:40:53.295Z
,,,,,demographic,what is your first/native language?,english,4504,1,228,,2022-06-01T04:41:00.391Z
a reason,a mistake,a picture,a reason,,trial,,,1047,1,228,26,2022-06-01T04:41:01.439Z
a mistake,a reason,a word,a word,,trial,,,824,1,229,27,2022-06-01T04:41:02.262Z
a heel,a word,a reason,a heel,,trial,,,784,1,239,28,2022-06-01T04:41:03.047Z
a word,a heel,a bed,a bed,,trial,,,793,1,240,29,2022-06-01T04:41:03.839Z
a table,a bed,a heel,a table,,trial,,,327,1,250,30,2022-06-01T04:41:04.167Z
a bed,a table, people,a bed,,trial,,,455,1,251,31,2022-06-01T04:41:04.623Z
elk,dolphin,frog,,100,feedback,,,1967,1,252,32,2022-06-01T04:41:06.592Z
,,,,,demographic,what country do you currently live in?,USA,2890,1,261,,2022-06-01T04:41:09.487Z
to know,red,to hear,to know,,trial,,,1007,1,261,33,2022-06-01T04:41:10.495Z
red,to know,blue,blue,,trial,,,991,1,262,34,2022-06-01T04:41:11.487Z
to hear,blue,to know,to hear,,trial,,,721,1,272,35,2022-06-01T04:41:12.207Z
blue,to hear,a fish,blue,,trial,,,256,1,273,36,2022-06-01T04:41:12.462Z
rat,horse,rooster,,0,feedback,,,2875,1,274,37,2022-06-01T04:41:15.344Z
,,,,,demographic,do you have any comments for us?,NIce,28071,1,283,,2022-06-01T04:41:45.015Z
blue,to hear,a story,blue,,trial,,,839,1,283,38,2022-06-01T04:41:45.855Z
to hear,blue,to lose,to lose,,trial,,,832,1,284,39,2022-06-01T04:41:46.687Z
to carry,to lose,blue,to carry,,trial,,,353,1,294,40,2022-06-01T04:41:47.040Z
to lose,to carry,a teacher,to lose,,trial,,,311,1,295,41,2022-06-01T04:41:47.351Z
perch,seal,camel,,100,feedback,,,2301,1,296,42,2022-06-01T04:41:49.655Z
a story,to hear,blue,a story,,trial,,,2199,1,309,43,2022-06-01T04:41:54.038Z
to hear,a story,an arm,an arm,,trial,,,512,1,310,44,2022-06-01T04:41:54.551Z
a chair,an arm,a story,a chair,,trial,,,760,1,320,45,2022-06-01T04:41:55.310Z
an arm,a chair, child, child,,trial,,,1152,1,321,46,2022-06-01T04:41:56.462Z
 sick, child,a chair, sick,,trial,,,951,1,331,47,2022-06-01T04:41:57.414Z
 child, sick,to speak,to speak,,trial,,,1153,1,332,48,2022-06-01T04:41:58.567Z
dolphin,tiger,rattlesnake,,0,feedback,,,29174,1,342,49,2022-06-01T04:42:27.743Z
 noise, hair,a gift, noise,,trial,,,1018,1,352,50,2022-06-01T04:42:28.767Z
 hair, noise,to choose,to choose,,trial,,,672,1,353,51,2022-06-01T04:42:29.438Z
 meat,to choose, noise, meat,,trial,,,1496,1,363,52,2022-06-01T04:42:30.935Z
to choose, meat, hair, hair,,trial,,,1224,1,364,53,2022-06-01T04:42:32.159Z
a gift, hair, meat,a gift,,trial,,,1176,1,374,54,2022-06-01T04:42:33.335Z
 hair,a gift, gentle, gentle,,trial,,,1024,1,375,55,2022-06-01T04:42:34.359Z
rooster,vulture,toad,,0,feedback,,,2747,1,385,56,2022-06-01T04:42:37.108Z
to add,an item, gentle,to add,,trial,,,734,1,385,57,2022-06-01T04:42:39.510Z
an item,to add,to deceive,to deceive,,trial,,,288,1,386,58,2022-06-01T04:42:39.799Z
a family,to deceive,to add,to add,,trial,,,417,1,396,59,2022-06-01T04:42:40.216Z
vulture,penguin,seal,,100,feedback,,,1570,1,406,60,2022-06-01T04:42:41.791Z
a corner, country, money,a corner,,trial,,,1775,1,417,61,2022-06-01T04:42:44.752Z
 country,a corner,to grow,to grow,,trial,,,808,1,418,62,2022-06-01T04:42:45.559Z
to win,to grow,a corner,to win,,trial,,,1712,1,428,63,2022-06-01T04:42:47.270Z
to grow,to win,to believe,to believe,,trial,,,1976,1,429,64,2022-06-01T04:42:49.247Z
blue,to believe,to win,blue,,trial,,,656,1,439,65,2022-06-01T04:42:49.904Z
to believe,blue,to lose,to believe,,trial,,,296,1,440,66,2022-06-01T04:42:50.199Z
coyote,seal,perch,,100,feedback,,,1452,1,441,67,2022-06-01T04:42:51.655Z
a cloud, grass, week,a cloud,,trial,,,1263,1,454,68,2022-06-01T04:42:54.055Z
 grass,a cloud, thin, thin,,trial,,,1496,1,455,69,2022-06-01T04:42:55.550Z
 weak, thin,a cloud, weak,,trial,,,456,1,465,70,2022-06-01T04:42:56.007Z
 thin, weak, dirt, dirt,,trial,,,977,1,466,71,2022-06-01T04:42:56.984Z
 week, dirt, weak, week,,trial,,,1039,1,476,72,2022-06-01T04:42:58.023Z
 dirt, week, clothes, clothes,,trial,,,1600,1,477,73,2022-06-01T04:42:59.623Z
dog,turkey,duck,,100,feedback,,,1478,1,487,74,2022-06-01T04:43:01.103Z
a month,a box,the ground,a month,,trial,,,978,1,487,75,2022-06-01T04:43:02.087Z
a box,a month,a leg,a leg,,trial,,,856,1,488,76,2022-06-01T04:43:02.942Z
a chair,a leg,a month,a chair,,trial,,,697,1,498,77,2022-06-01T04:43:03.640Z
a leg,a chair, child, child,,trial,,,679,1,499,78,2022-06-01T04:43:04.319Z
 sick, child,a chair,a chair,,trial,,,376,1,509,79,2022-06-01T04:43:04.695Z
cougar,bat,rattlesnake,,50,feedback,,,943,1,519,80,2022-06-01T04:43:05.639Z
to seek,a boot,a grandfather,to seek,,trial,,,824,1,597,81,2022-06-01T04:43:07.471Z
a boot,to seek, source,a boot,,trial,,,1360,1,598,82,2022-06-01T04:43:08.830Z
gorilla,toad,rat,,50,feedback,,,925,1,599,83,2022-06-01T04:43:09.759Z
to melt, clever,black,to melt,,trial,,,896,1,690,84,2022-06-01T04:43:10.848Z
 clever,to melt,a shirt, clever,,trial,,,1271,1,691,85,2022-06-01T04:43:12.118Z
turtle,dolphin,cougar,,50,feedback,,,349,1,692,86,2022-06-01T04:43:12.471Z
 naked,to arrive, meat, naked,,trial,,,1103,1,772,87,2022-06-01T04:43:13.967Z
to arrive, naked, other, other,,trial,,,1408,1,773,88,2022-06-01T04:43:15.375Z
 money, other, naked, money,,trial,,,1224,1,783,89,2022-06-01T04:43:16.599Z
 other, money,to disturb,to disturb,,trial,,,1368,1,784,90,2022-06-01T04:43:17.967Z
a collar,to disturb, money,a collar,,trial,,,1288,1,794,91,2022-06-01T04:43:19.255Z
to disturb,a collar,to eat,to disturb,,trial,,,1632,1,795,92,2022-06-01T04:43:20.887Z
crab,seal,cat,,100,feedback,,,1639,1,796,93,2022-06-01T04:43:22.528Z
red, gentle,a woman,a woman,,trial,,,431,1,814,94,2022-06-01T04:43:23.654Z
to sell,a woman, gentle, gentle,,trial,,,552,1,824,95,2022-06-01T04:43:24.206Z
rooster,sheep,mouse,,51,feedback,,,241,1,834,96,2022-06-01T04:43:24.450Z
a needle, life,a pillow,a needle,,trial,,,216,1,920,97,2022-06-01T04:43:24.888Z
 life,a needle, country, country,,trial,,,609,1,921,98,2022-06-01T04:43:25.496Z
a corner, country,a needle,a corner,,trial,,,679,1,931,99,2022-06-01T04:43:26.175Z
 country,a corner,to grow,to grow,,trial,,,872,1,932,100,2022-06-01T04:43:27.048Z
to win,to grow,a corner,to win,,trial,,,663,1,942,101,2022-06-01T04:43:27.711Z
to grow,to win,to carry,to carry,,trial,,,665,1,943,102,2022-06-01T04:43:28.375Z
cougar,dolphin,lobster,,100,feedback,,,1300,1,953,103,2022-06-01T04:43:29.679Z
to believe,to win,to carry,to believe,,trial,,,884,1,961,104,2022-06-01T04:43:30.567Z
to win,to believe,a word,a word,,trial,,,553,1,962,105,2022-06-01T04:43:31.120Z
a fish,a word,to believe,a fish,,trial,,,480,1,972,106,2022-06-01T04:43:31.600Z
a word,a fish,a nest,a nest,,trial,,,1447,1,973,107,2022-06-01T04:43:33.047Z
 pain,a nest,a fish, pain,,trial,,,872,1,983,108,2022-06-01T04:43:33.919Z
a nest, pain,to teach,a nest,,trial,,,1209,1,984,109,2022-06-01T04:43:35.128Z
deer,bat,alligator,,100,feedback,,,1036,1,985,110,2022-06-01T04:43:36.167Z
brown,a message, milk,brown,,trial,,,1204,1,996,111,2022-06-01T04:43:37.375Z
a message,brown,a thigh,a message,,trial,,,1488,1,997,112,2022-06-01T04:43:38.864Z
tiger,rat,vulture,,100,feedback,,,941,1,998,113,2022-06-01T04:43:39.807Z
green, truth,a word,green,,trial,,,807,1,1008,114,2022-06-01T04:43:41.592Z
 truth,green,purple, truth,,trial,,,1279,1,1009,115,2022-06-01T04:43:42.871Z
seal,zebra,peacock,,100,feedback,,,1269,1,1010,116,2022-06-01T04:43:44.144Z
a message,to eat, hair, hair,,trial,,,1784,1,1029,117,2022-06-01T04:43:48.120Z
 noise, hair,to eat, noise,,trial,,,1767,1,1039,118,2022-06-01T04:43:49.887Z
 hair, noise,a collar, hair,,trial,,,944,1,1040,119,2022-06-01T04:43:50.831Z
rattlesnake,bat,pony,,100,feedback,,,1020,1,1041,120,2022-06-01T04:43:51.855Z
a thigh,brown,a shoe,a thigh,,trial,,,849,1,1061,121,2022-06-01T04:43:55.247Z
brown,a thigh, thick,brown,,trial,,,475,1,1062,122,2022-06-01T04:43:55.722Z
bat,dog,chicken,,100,feedback,,,618,1,1063,123,2022-06-01T04:43:56.343Z
to carry,to believe,to believe,to carry,,catch,,,936,1,1072,124,2022-06-01T04:43:58.752Z
pig,bat,alligator,,50,feedback,,,742,1,1073,125,2022-06-01T04:43:59.495Z
 soft, memory, sad, soft,,trial,,,599,1,1170,126,2022-06-01T04:44:01.103Z
 memory, soft,a woman, memory,,trial,,,1024,1,1171,127,2022-06-01T04:44:02.128Z
horse,pony,rooster,,100,feedback,,,1029,1,1172,128,2022-06-01T04:44:03.158Z
a picture,a reason,a word,a picture,,trial,,,902,1,1255,129,2022-06-01T04:44:08.417Z
a reason,a picture, milk, milk,,trial,,,1448,1,1256,130,2022-06-01T04:44:09.864Z
to forget, milk,a picture,to forget,,trial,,,1495,1,1266,131,2022-06-01T04:44:11.358Z
 milk,to forget,blue, milk,,trial,,,1576,1,1267,132,2022-06-01T04:44:12.935Z
chicken,goat,seal,,48,feedback,,,817,1,1268,133,2022-06-01T04:44:13.754Z
orange, under, powerful,orange,,trial,,,560,1,1356,134,2022-06-01T04:44:15.463Z
 under,orange, cheap, under,,trial,,,879,1,1357,135,2022-06-01T04:44:16.343Z
coyote,iguana,alligator,,100,feedback,,,1533,1,1358,136,2022-06-01T04:44:17.879Z
brown,a message, milk, milk,,trial,,,3119,1,1358,137,2022-06-01T04:44:26.295Z
to forget, milk,a message,to forget,,trial,,,1009,1,1368,138,2022-06-01T04:44:27.304Z
 milk,to forget,a boot,a boot,,trial,,,335,1,1369,139,2022-06-01T04:44:27.639Z
to seek,a boot,to forget,to forget,,trial,,,224,1,1379,140,2022-06-01T04:44:27.863Z
turkey,dog,coyote,,100,feedback,,,3349,1,1389,141,2022-06-01T04:44:31.214Z
a message,to eat, hair,a message,,trial,,,1239,1,1389,142,2022-06-01T04:44:35.351Z
to eat,a message,brown,to eat,,trial,,,1088,1,1390,143,2022-06-01T04:44:36.438Z
lobster,dolphin,elephant,,100,feedback,,,1518,1,1391,144,2022-06-01T04:44:37.959Z
orange, under, powerful,orange,,trial,,,1294,1,1405,145,2022-06-01T04:44:43.783Z
 under,orange, cheap, under,,trial,,,1473,1,1406,146,2022-06-01T04:44:45.255Z
crocodile,gorilla,fawn,,100,feedback,,,3549,1,1407,147,2022-06-01T04:44:48.808Z
 chest, sick,to speak, chest,,trial,,,866,1,1416,148,2022-06-01T04:44:59.825Z
 sick, chest,a mistake, sick,,trial,,,1055,1,1417,149,2022-06-01T04:45:00.879Z
rattlesnake,turtle,perch,,100,feedback,,,859,1,1418,150,2022-06-01T04:45:01.741Z
black, powerful,an item,black,,trial,,,848,1,1437,151,2022-06-01T04:45:08.512Z
 powerful,black,to hear, powerful,,trial,,,1023,1,1438,152,2022-06-01T04:45:09.536Z
chimp,dolphin,crab,,100,feedback,,,885,1,1439,153,2022-06-01T04:45:10.424Z
 truth, source,a picture, truth,,trial,,,855,1,1448,154,2022-06-01T04:45:16.159Z
 source, truth,a word, source,,trial,,,872,1,1449,155,2022-06-01T04:45:17.031Z
cougar,dolphin,toad,,100,feedback,,,765,1,1450,156,2022-06-01T04:45:17.799Z
a ladder, cheap,gray,a ladder,,trial,,,719,1,1463,157,2022-06-01T04:45:20.839Z
 cheap,a ladder, weight, weight,,trial,,,2120,1,1464,158,2022-06-01T04:45:22.959Z
a knife, weight,a ladder,a ladder,,trial,,,257,1,1474,159,2022-06-01T04:45:23.216Z
chicken,goat,dolphin,,100,feedback,,,1005,1,1484,160,2022-06-01T04:45:24.223Z
to steal,a cheek,a vein,to steal,,trial,,,1344,1,1502,161,2022-06-01T04:45:28.095Z
a cheek,to steal, power, power,,trial,,,1183,1,1503,162,2022-06-01T04:45:29.279Z
an item, power,to steal,an item,,trial,,,2472,1,1513,163,2022-06-01T04:45:31.751Z
 power,an item,to add, power,,trial,,,1320,1,1514,164,2022-06-01T04:45:33.071Z
elk,seal,turtle,,100,feedback,,,1068,1,1515,165,2022-06-01T04:45:34.143Z
a mistake,a mistake, clever,a mistake,,catch,,,985,1,1523,166,2022-06-01T04:45:38.625Z
lion,dolphin,perch,,100,feedback,,,836,1,1524,167,2022-06-01T04:45:39.463Z
a nose, famous,black,a nose,,trial,,,880,1,1534,168,2022-06-01T04:45:41.464Z
 famous,a nose,a vein, famous,,trial,,,912,1,1535,169,2022-06-01T04:45:42.376Z
perch,dolphin,pony,,100,feedback,,,822,1,1536,170,2022-06-01T04:45:43.199Z
 powerful, under,orange, powerful,,trial,,,982,1,1556,171,2022-06-01T04:45:45.583Z
 under, powerful,black,black,,trial,,,616,1,1557,172,2022-06-01T04:45:46.199Z
to hear,black, powerful,to hear,,trial,,,1096,1,1567,173,2022-06-01T04:45:47.295Z
black,to hear,a story,a story,,trial,,,1272,1,1568,174,2022-06-01T04:45:48.567Z
an arm,a story,to hear,an arm,,trial,,,1265,1,1578,175,2022-06-01T04:45:49.832Z
a story,an arm,a toe,a story,,trial,,,1743,1,1579,176,2022-06-01T04:45:51.574Z
turtle,beaver,chimp,,100,feedback,,,1469,1,1580,177,2022-06-01T04:45:53.047Z
 soft, memory, sad, soft,,trial,,,1111,1,1587,178,2022-06-01T04:45:55.975Z
 memory, soft,red,red,,trial,,,1689,1,1588,179,2022-06-01T04:45:57.664Z
a shelf,red, soft,a shelf,,trial,,,711,1,1598,180,2022-06-01T04:45:58.374Z
red,a shelf, people, people,,trial,,,1384,1,1599,181,2022-06-01T04:45:59.759Z
 money, people,a shelf, money,,trial,,,736,1,1609,182,2022-06-01T04:46:00.495Z
 people, money,to disturb, people,,trial,,,1601,1,1610,183,2022-06-01T04:46:02.095Z
lobster,dolphin,caribou,,100,feedback,,,1037,1,1611,184,2022-06-01T04:46:03.135Z
a ladder, cheap,gray,a ladder,,trial,,,1049,1,1630,185,2022-06-01T04:46:06.728Z
 cheap,a ladder, weight, cheap,,trial,,,528,1,1631,186,2022-06-01T04:46:07.256Z
pig,tiger,alligator,,100,feedback,,,2622,1,1632,187,2022-06-01T04:46:09.881Z
to speak, sick, chest,to speak,,trial,,,801,1,1650,188,2022-06-01T04:46:11.623Z
 sick,to speak,a story, sick,,trial,,,489,1,1651,189,2022-06-01T04:46:12.112Z
caribou,duck,chicken,,100,feedback,,,1621,1,1652,190,2022-06-01T04:46:13.735Z
to believe,to win,to carry,to believe,,trial,,,918,1,1652,191,2022-06-01T04:46:15.472Z
to win,to believe,a word,to win,,trial,,,500,1,1653,192,2022-06-01T04:46:15.970Z
bat,caribou,duck,,100,feedback,,,1372,1,1654,193,2022-06-01T04:46:17.345Z
to lose,red,a roof,to lose,,trial,,,736,1,1664,194,2022-06-01T04:46:20.511Z
red,to lose,to believe,red,,trial,,,528,1,1665,195,2022-06-01T04:46:21.039Z
fawn,horse,peacock,,50,feedback,,,965,1,1666,196,2022-06-01T04:46:22.007Z
 powerful,a roof, weight, powerful,,trial,,,1056,1,1696,197,2022-06-01T04:46:23.894Z
a roof, powerful,an item,an item,,trial,,,576,1,1697,198,2022-06-01T04:46:24.471Z
 gentle,an item, powerful, gentle,,trial,,,872,1,1707,199,2022-06-01T04:46:25.342Z
an item, gentle,red,red,,trial,,,856,1,1708,200,2022-06-01T04:46:26.199Z
to lose,red, gentle,to lose,,trial,,,944,1,1718,201,2022-06-01T04:46:27.143Z
red,to lose,to carry,to carry,,trial,,,1432,1,1719,202,2022-06-01T04:46:28.575Z
crocodile,bear,bat,,100,feedback,,,1240,1,1729,203,2022-06-01T04:46:29.817Z
 weak, soft,a woman, weak,,trial,,,1128,1,1741,204,2022-06-01T04:46:30.951Z
 soft, weak, dirt, dirt,,trial,,,848,1,1742,205,2022-06-01T04:46:31.799Z
a cloud, dirt, weak,a cloud,,trial,,,1160,1,1752,206,2022-06-01T04:46:32.959Z
 dirt,a cloud, thin, thin,,trial,,,1696,1,1753,207,2022-06-01T04:46:34.656Z
a woman, thin,a cloud,a woman,,trial,,,1616,1,1763,208,2022-06-01T04:46:36.270Z
 thin,a woman, sick, sick,,trial,,,1752,1,1764,209,2022-06-01T04:46:38.023Z
seal,coyote,turtle,,100,feedback,,,1998,1,1774,210,2022-06-01T04:46:40.024Z
a shoe,black, under,a shoe,,trial,,,13586,1,1781,211,2022-06-01T04:46:53.615Z
black,a shoe,a grandfather,a grandfather,,trial,,,983,1,1782,212,2022-06-01T04:46:54.599Z
 famous,a grandfather,a shoe, famous,,trial,,,2377,1,1792,213,2022-06-01T04:46:56.975Z
a grandfather, famous,a nose,a nose,,trial,,,2983,1,1793,214,2022-06-01T04:46:59.959Z
a vein,a nose, famous,a vein,,trial,,,1881,1,1803,215,2022-06-01T04:47:01.840Z
a nose,a vein, grief,a nose,,trial,,,1439,1,1804,216,2022-06-01T04:47:03.279Z
frog,seal,cougar,,50,feedback,,,661,1,1805,217,2022-06-01T04:47:03.943Z
 thin,gray,a roof, thin,,trial,,,1183,1,1902,218,2022-06-01T04:47:06.255Z
gray, thin, dish, dish,,trial,,,1441,1,1903,219,2022-06-01T04:47:07.695Z
white, dish, thin,white,,trial,,,1359,1,1913,220,2022-06-01T04:47:09.055Z
 dish,white, under, under,,trial,,,968,1,1914,221,2022-06-01T04:47:10.023Z
orange, under,white,white,,trial,,,2032,1,1924,222,2022-06-01T04:47:12.055Z
crab,dolphin,elk,,100,feedback,,,1438,1,1934,223,2022-06-01T04:47:13.495Z
a nose, famous,black,a nose,,trial,,,1367,1,1952,224,2022-06-01T04:47:15.719Z
 famous,a nose,a vein,a vein,,trial,,,1008,1,1953,225,2022-06-01T04:47:16.726Z
 grief,a vein,a nose, grief,,trial,,,760,1,1963,226,2022-06-01T04:47:17.487Z
a vein, grief, sad, sad,,trial,,,864,1,1964,227,2022-06-01T04:47:18.351Z
 chest, sad, grief, chest,,trial,,,1440,1,1974,228,2022-06-01T04:47:19.791Z
 sad, chest,a mistake,a mistake,,trial,,,704,1,1975,229,2022-06-01T04:47:20.495Z
crocodile,duck,chicken,,100,feedback,,,3269,1,1985,230,2022-06-01T04:47:23.768Z
to bother,to destroy, power,to bother,,trial,,,1096,1,1985,231,2022-06-01T04:47:26.439Z
to destroy,to bother,blue,to destroy,,trial,,,585,1,1986,232,2022-06-01T04:47:27.024Z
peacock,crocodile,iguana,,100,feedback,,,2148,1,1987,233,2022-06-01T04:47:29.175Z
 milk,a picture,an arm, milk,,trial,,,1903,1,1987,234,2022-06-01T04:47:31.983Z
a picture, milk,to forget,to forget,,trial,,,2112,1,1988,235,2022-06-01T04:47:34.095Z
blue,to forget, milk,blue,,trial,,,1432,1,1998,236,2022-06-01T04:47:35.527Z
to forget,blue,a shelf,a shelf,,trial,,,608,1,1999,237,2022-06-01T04:47:36.136Z
a month,a shelf,blue,a month,,trial,,,1360,1,2009,238,2022-06-01T04:47:37.494Z
a shelf,a month,a leg,a leg,,trial,,,848,1,2010,239,2022-06-01T04:47:38.343Z
chicken,horse,zebra,,100,feedback,,,1277,1,2020,240,2022-06-01T04:47:39.623Z
a bed,a shoe, memory,a bed,,trial,,,1007,1,2020,241,2022-06-01T04:47:48.408Z
a shoe,a bed,a table,a table,,trial,,,1936,1,2021,242,2022-06-01T04:47:50.344Z
 people,a table,a bed,a bed,,trial,,,296,1,2031,243,2022-06-01T04:47:50.640Z
rooster,pig,bat,,100,feedback,,,1356,1,2041,244,2022-06-01T04:47:51.999Z
orange, under, powerful,orange,,trial,,,1391,1,2057,245,2022-06-01T04:47:56.174Z
 under,orange,a roof,a roof,,trial,,,816,1,2058,246,2022-06-01T04:47:56.990Z
 powerful,a roof,orange, powerful,,trial,,,1488,1,2068,247,2022-06-01T04:47:58.479Z
a roof, powerful,an item,an item,,trial,,,800,1,2069,248,2022-06-01T04:47:59.279Z
to add,an item, powerful,to add,,trial,,,1064,1,2079,249,2022-06-01T04:48:00.342Z
an item,to add,a boot,a boot,,trial,,,896,1,2080,250,2022-06-01T04:48:01.239Z
rat,vulture,turkey,,50,feedback,,,725,1,2090,251,2022-06-01T04:48:01.967Z
,,,,,cap,completion_code,plverm1mpuyoq,,1,2121,251,2022-06-01T04:48:31.103Z
 money, other, life, money,,trial,,,1791,1,2121,253,2022-06-01T04:48:32.895Z
 other, money,to disturb,to disturb,,trial,,,713,1,2122,254,2022-06-01T04:48:33.608Z
a collar,to disturb, money,a collar,,trial,,,559,1,2132,255,2022-06-01T04:48:34.167Z
to disturb,a collar,to eat,to eat,,trial,,,704,1,2133,256,2022-06-01T04:48:34.871Z
blue,to eat,a collar,a collar,,trial,,,225,1,2143,257,2022-06-01T04:48:35.095Z
lamb,rooster,rat,,100,feedback,,,1886,1,2153,258,2022-06-01T04:48:36.983Z
 chest, sad,to speak, chest,,trial,,,1346,1,2163,259,2022-06-01T04:48:38.335Z
 sad, chest,a toe,a toe,,trial,,,1465,1,2164,260,2022-06-01T04:48:39.799Z
 memory,a toe, chest, memory,,trial,,,1097,1,2174,261,2022-06-01T04:48:40.896Z
a toe, memory, soft, soft,,trial,,,1400,1,2175,262,2022-06-01T04:48:42.296Z
a woman, soft, memory,a woman,,trial,,,1089,1,2185,263,2022-06-01T04:48:43.384Z
