topword,middleword,bottomword,chosenword,percentage,trial_type,question,response,rt,session,points,trialnum,datetime
,,,,,demographic,automatic user agent check,"Mozilla/5.0 (Windows NT 10.0; Win64; x64) AppleWebKit/537.36 (KHTML, like Gecko) Chrome/101.0.4951.67 Safari/537.36",,1,0,,2022-06-01T07:49:32.131Z
,,,,,demographic,automatic user agent check,"Mozilla/5.0 (Windows NT 10.0; Win64; x64) AppleWebKit/537.36 (KHTML, like Gecko) Chrome/101.0.4951.67 Safari/537.36",,2,0,,2022-06-01T07:49:33.945Z
 sick,an arm, pain, pain,,trial,,,5181.199999809265,1,0,2,2022-06-01T07:54:57.360Z
 naked, pain,an arm,an arm,,trial,,,9446.800000190735,1,10,3,2022-06-01T07:55:06.807Z
alligator,bat,caribou,,63,feedback,,,55338.09999990463,1,20,4,2022-06-01T07:58:40.445Z
,,,,,demographic,what is your age?,38,5922.900000095367,1,81,,2022-06-01T07:58:46.383Z
 chest,a boot,to teach, chest,,trial,,,30578.10000038147,1,81,5,2022-06-01T07:59:16.964Z
a boot, chest, dirt, dirt,,trial,,,20353.5,1,82,6,2022-06-01T07:59:37.318Z
to read, dirt, chest, chest,,trial,,,16815.5,1,92,7,2022-06-01T07:59:54.133Z
frog,dolphin,elk,,20,feedback,,,31984.900000095367,1,102,8,2022-06-01T08:00:26.122Z
,,,,,demographic,what is your gender?,female,5554.5,1,129,,2022-06-01T08:00:47.697Z
to choose, thick, thick,to choose,,catch,,,9822.89999961853,1,129,9,2022-06-01T08:00:57.523Z
horse,pony,rooster,,95,feedback,,,35883.5,1,130,10,2022-06-01T08:01:33.409Z
,,,,,demographic,what languages do you speak?,English,11907.699999809265,1,227,,2022-06-01T08:01:54.228Z
to sell,a woman,a box,a box,,trial,,,15113,1,227,11,2022-06-01T08:02:09.343Z
a month,a box,a woman,a month,,trial,,,12973.799999713898,1,237,12,2022-06-01T08:02:22.317Z
a box,a month,a chair,a box,,trial,,,8851,1,238,13,2022-06-01T08:02:31.168Z
coyote,seal,crab,,24,feedback,,,34788.5,1,239,14,2022-06-01T08:03:05.960Z
,,,,,demographic,what is the highest level ofeducation you have completed?,5_bachelor,7789.39999961853,1,281,,2022-06-01T08:03:21.303Z
 sick,a leg, pain, pain,,trial,,,6502.599999904633,1,281,15,2022-06-01T08:03:27.808Z
 naked, pain,a leg,a leg,,trial,,,3061.0999999046326,1,291,16,2022-06-01T08:03:30.869Z
gorilla,bat,rattlesnake,,66,feedback,,,15259.199999809265,1,301,17,2022-06-01T08:03:46.133Z
,,,,,demographic,what is your first/native language?,English,6006.39999961853,1,343,,2022-06-01T08:03:56.884Z
to steal,a gift,a story,a story,,trial,,,6742.300000190735,1,343,18,2022-06-01T08:04:03.628Z
to hear,a story,a gift,to hear,,trial,,,3968.9000000953674,1,353,19,2022-06-01T08:04:07.596Z
a story,to hear, life,a story,,trial,,,4556.199999809265,1,354,20,2022-06-01T08:04:12.153Z
seal,penguin,turkey,,82,feedback,,,28242.099999904633,1,355,21,2022-06-01T08:04:40.400Z
,,,,,demographic,what country do you currently live in?,USA,11129.300000190735,1,394,,2022-06-01T08:04:54.238Z
a vein, grass, grass, grass,,catch,,,4296.200000286102,1,394,22,2022-06-01T08:04:58.536Z
elk,seal,turtle,,29,feedback,,,29810.89999961853,1,404,23,2022-06-01T08:05:28.350Z
,,,,,demographic,do you have any comments for us?,NONE,14939.799999713898,1,468,,2022-06-01T08:05:47.699Z
to destroy,to win,to seek,to seek,,trial,,,7821.799999713898,1,468,24,2022-06-01T08:05:55.523Z
 clever,to seek,to win,to win,,trial,,,6515.700000286102,1,478,25,2022-06-01T08:06:02.039Z
chicken,goat,seal,,90,feedback,,,11123.299999713898,1,488,26,2022-06-01T08:06:13.168Z
a roof, people,a heel,a heel,,trial,,,15276,1,512,27,2022-06-01T08:06:33.891Z
 memory,a heel, people, people,,trial,,,3847.5999999046326,1,522,28,2022-06-01T08:06:37.738Z
bat,bear,crocodile,,20,feedback,,,167392,1,532,29,2022-06-01T08:09:25.133Z
a collar, sick,a pillow,a pillow,,trial,,,12077.900000095367,1,565,30,2022-06-01T08:09:40.076Z
 milk,a pillow, sick, sick,,trial,,,4045.0999999046326,1,575,31,2022-06-01T08:09:44.121Z
cat,seal,crab,,31,feedback,,,8276.900000095367,1,585,32,2022-06-01T08:09:52.402Z
 soft,a table, thin, thin,,trial,,,6608.099999904633,1,651,33,2022-06-01T08:10:01.718Z
a boot, thin,a table,a boot,,trial,,,5969.200000286102,1,661,34,2022-06-01T08:10:07.687Z
 thin,a boot, chest, thin,,trial,,,5846.5,1,662,35,2022-06-01T08:10:13.534Z
turtle,dolphin,cougar,,40,feedback,,,34312.199999809265,1,663,36,2022-06-01T08:10:47.849Z
red,orange,to choose,red,,trial,,,4259.89999961853,1,720,37,2022-06-01T08:10:54.607Z
orange,red,a family,orange,,trial,,,3761.9000000953674,1,721,38,2022-06-01T08:10:58.369Z
camel,caribou,duck,,77,feedback,,,25511,1,722,39,2022-06-01T08:11:23.883Z
 under, meat,to forget, under,,trial,,,15203.10000038147,1,800,40,2022-06-01T08:11:53.873Z
 meat, under,to grow, meat,,trial,,,7372.599999904633,1,801,41,2022-06-01T08:12:01.246Z
rat,vulture,turkey,,77,feedback,,,8709.200000286102,1,802,42,2022-06-01T08:12:09.959Z
a family,red,white,white,,trial,,,7139.299999713898,1,809,43,2022-06-01T08:12:27.539Z
a grandfather,white,red,red,,trial,,,3271.300000190735,1,819,44,2022-06-01T08:12:30.810Z
rat,horse,rooster,,62,feedback,,,13722.300000190735,1,829,45,2022-06-01T08:12:44.536Z
purple,brown,to deceive,purple,,trial,,,3436.199999809265,1,909,46,2022-06-01T08:12:51.685Z
brown,purple,red,red,,trial,,,8077.400000095367,1,910,47,2022-06-01T08:12:59.762Z
white,red,purple,purple,,trial,,,4209.199999809265,1,920,48,2022-06-01T08:13:03.971Z
dolphin,lamb,rooster,,59,feedback,,,14882.900000095367,1,930,49,2022-06-01T08:13:18.857Z
a boot, thin,a picture,a boot,,trial,,,20843.89999961853,1,1005,50,2022-06-01T08:13:49.441Z
 thin,a boot, chest, thin,,trial,,,6450.800000190735,1,1006,51,2022-06-01T08:13:55.891Z
coyote,seal,turtle,,34,feedback,,,18732.699999809265,1,1007,52,2022-06-01T08:14:14.627Z
a toe,a vein, clothes,a toe,,trial,,,9441.300000190735,1,1085,53,2022-06-01T08:14:27.375Z
a vein,a toe,to teach,a vein,,trial,,,7079.900000095367,1,1086,54,2022-06-01T08:14:34.455Z
pony,seal,perch,,42,feedback,,,26605.199999809265,1,1087,55,2022-06-01T08:15:01.064Z
a shelf, dish, under,a shelf,,trial,,,4515.900000095367,1,1173,56,2022-06-01T08:15:07.801Z
 dish,a shelf,a month, dish,,trial,,,4139.799999713898,1,1174,57,2022-06-01T08:15:11.941Z
rattlesnake,turtle,perch,,40,feedback,,,36703.40000009537,1,1175,58,2022-06-01T08:15:48.647Z
a pillow, sad,a knife,a pillow,,trial,,,6444.200000286102,1,1232,59,2022-06-01T08:16:03.603Z
 sad,a pillow, milk, sad,,trial,,,4204.799999713898,1,1233,60,2022-06-01T08:16:07.808Z
seal,zebra,peacock,,65,feedback,,,15664.300000190735,1,1234,61,2022-06-01T08:16:23.475Z
to steal,an item,to win,to steal,,trial,,,147712.39999961853,1,1312,62,2022-06-01T08:18:53.545Z
an item,to steal, week,an item,,trial,,,12329.60000038147,1,1313,63,2022-06-01T08:19:05.875Z
alligator,beaver,caribou,,35,feedback,,,22593.599999904633,1,1314,64,2022-06-01T08:19:28.472Z
a roof, other,a shirt,a shirt,,trial,,,4009.9000000953674,1,1394,65,2022-06-01T08:19:34.604Z
a cloud,a shirt, other, other,,trial,,,2934.699999809265,1,1404,66,2022-06-01T08:19:37.539Z
chicken,duck,caribou,,75,feedback,,,4970.300000190735,1,1414,67,2022-06-01T08:19:42.512Z
pink,an arm,an arm,an arm,,catch,,,5430.800000190735,1,1482,68,2022-06-01T08:19:56.868Z
bat,lion,crocodile,,39,feedback,,,5696.300000190735,1,1492,69,2022-06-01T08:20:02.568Z
white,orange, thick,white,,trial,,,2852.6000003814697,1,1575,70,2022-06-01T08:20:07.622Z
orange,white,a grandfather,orange,,trial,,,25274.39999961853,1,1576,71,2022-06-01T08:20:32.897Z
frog,dolphin,deer,,40,feedback,,,20815.299999713898,1,1577,72,2022-06-01T08:20:53.716Z
to speak, truth, weak,to speak,,trial,,,2635.1000003814697,1,1645,73,2022-06-01T08:20:58.445Z
 truth,to speak, life, truth,,trial,,,2862.0999999046326,1,1646,74,2022-06-01T08:21:01.307Z
chicken,goat,lion,,41,feedback,,,5808.800000190735,1,1647,75,2022-06-01T08:21:07.119Z
to destroy,to lose,to seek,to destroy,,trial,,,12815.800000190735,1,1747,76,2022-06-01T08:21:23.746Z
to lose,to destroy,a ladder,to lose,,trial,,,308005.09999990463,1,1748,77,2022-06-01T08:26:31.752Z
perch,seal,coyote,,61,feedback,,,38298.59999990463,1,1749,78,2022-06-01T08:27:10.054Z
 sad,to arrive,a needle,a needle,,trial,,,4386.300000190735,1,1819,79,2022-06-01T08:27:15.829Z
 clothes,a needle,to arrive, clothes,,trial,,,2302.699999809265,1,1829,80,2022-06-01T08:27:18.132Z
a needle, clothes,to bother,a needle,,trial,,,3282.2000002861023,1,1830,81,2022-06-01T08:27:21.414Z
lobster,dolphin,elephant,,61,feedback,,,6787.900000095367,1,1831,82,2022-06-01T08:27:28.205Z
a chair,a month,to arrive,to arrive,,trial,,,2898.699999809265,1,1906,83,2022-06-01T08:27:33.885Z
 sad,to arrive,a month,a month,,trial,,,9534.900000095367,1,1916,84,2022-06-01T08:27:43.420Z
seal,penguin,vulture,,58,feedback,,,5986.599999904633,1,1926,85,2022-06-01T08:27:49.409Z
 dish,to speak, life, life,,trial,,,5955.800000190735,1,2009,86,2022-06-01T08:27:59.959Z
 hair, life,to speak,to speak,,trial,,,2819.0999999046326,1,2019,87,2022-06-01T08:28:02.778Z
turkey,lamb,elephant,,42,feedback,,,20172.199999809265,1,2029,88,2022-06-01T08:28:22.953Z
 weak,a reason,a gift, weak,,trial,,,7731.800000190735,1,2126,89,2022-06-01T08:28:34.391Z
a reason, weak,to believe,a reason,,trial,,,12224.099999904633,1,2127,90,2022-06-01T08:28:46.615Z
tiger,rat,vulture,,59,feedback,,,5232.400000095367,1,2128,91,2022-06-01T08:28:51.851Z
red,green,a fish,red,,trial,,,3082.5,1,2196,92,2022-06-01T08:29:00.643Z
green,red,white,green,,trial,,,2481.1000003814697,1,2197,93,2022-06-01T08:29:03.124Z
coyote,iguana,alligator,,39,feedback,,,7968.400000095367,1,2198,94,2022-06-01T08:29:11.096Z
to read, dirt,orange,orange,,trial,,,6667.799999713898,1,2245,95,2022-06-01T08:29:24.919Z
 thick,orange, dirt, dirt,,trial,,,2654.1000003814697,1,2255,96,2022-06-01T08:29:27.573Z
lion,dolphin,perch,,0,feedback,,,25901.799999713898,1,2265,97,2022-06-01T08:29:53.478Z
gray, naked,to bother,to bother,,trial,,,16275.200000286102,1,2281,98,2022-06-01T08:30:14.037Z
a gift,to bother, naked, naked,,trial,,,3104.0999999046326,1,2291,99,2022-06-01T08:30:17.141Z
iguana,crocodile,peacock,,74,feedback,,,7880.599999904633,1,2301,100,2022-06-01T08:30:25.025Z
 child,to read, life, child,,trial,,,4101.699999809265,1,2376,101,2022-06-01T08:30:32.202Z
to read, child,a box,to read,,trial,,,3099.5999999046326,1,2377,102,2022-06-01T08:30:35.301Z
crab,dolphin,elk,,62,feedback,,,3736.9000000953674,1,2378,103,2022-06-01T08:30:39.041Z
a thigh, noise, powerful, powerful,,trial,,,9231.400000095367,1,2461,104,2022-06-01T08:30:49.931Z
yellow, powerful, noise, noise,,trial,,,2897.2999997138977,1,2471,105,2022-06-01T08:30:52.828Z
rooster,vulture,turtle,,67,feedback,,,16809.699999809265,1,2481,106,2022-06-01T08:31:09.641Z
white,red,a family,white,,trial,,,7184.60000038147,1,2538,107,2022-06-01T08:31:18.401Z
red,white,a grandfather,red,,trial,,,2843.199999809265,1,2539,108,2022-06-01T08:31:21.245Z
toad,rat,gorilla,,39,feedback,,,26981.900000095367,1,2540,109,2022-06-01T08:31:48.229Z
a month,a shelf, soft, soft,,trial,,,7462.900000095367,1,2604,110,2022-06-01T08:31:57.372Z
 grief, soft,a shelf, grief,,trial,,,6742.099999904633,1,2614,111,2022-06-01T08:32:04.114Z
 soft, grief,a knife, soft,,trial,,,4291.199999809265,1,2615,112,2022-06-01T08:32:08.405Z
rat,lamb,rooster,,65,feedback,,,44500.300000190735,1,2616,113,2022-06-01T08:32:52.911Z
orange, grass,to read,orange,,trial,,,55951.7999997139,1,2684,114,2022-06-01T08:33:50.280Z
 grass,orange,to choose, grass,,trial,,,10236.099999904633,1,2685,115,2022-06-01T08:34:00.516Z
lobster,dolphin,cougar,,69,feedback,,,5988.10000038147,1,2686,116,2022-06-01T08:34:06.509Z
to choose,orange,a family,to choose,,trial,,,4964.900000095367,1,2754,117,2022-06-01T08:34:14.541Z
orange,to choose,a needle,orange,,trial,,,2301,1,2755,118,2022-06-01T08:34:16.842Z
caribou,dolphin,lobster,,36,feedback,,,4848.299999713898,1,2756,119,2022-06-01T08:34:21.695Z
 soft, thin, thin, thin,,catch,,,2792.699999809265,1,2836,120,2022-06-01T08:34:26.152Z
chicken,duck,crocodile,,68,feedback,,,5621.099999904633,1,2846,121,2022-06-01T08:34:31.776Z
a teacher,to grow,to destroy,a teacher,,trial,,,6366.5,1,2899,122,2022-06-01T08:34:43.513Z
to grow,a teacher, meat,to grow,,trial,,,2977.199999809265,1,2900,123,2022-06-01T08:34:46.490Z
turkey,dog,coyote,,31,feedback,,,28136.5,1,2901,124,2022-06-01T08:35:14.629Z
a grandfather,black,to deceive,to deceive,,trial,,,6165.199999809265,1,2958,125,2022-06-01T08:35:22.407Z
 week,to deceive,black,black,,trial,,,14992.900000095367,1,2968,126,2022-06-01T08:35:37.400Z
bat,pig,rooster,,35,feedback,,,11787.200000286102,1,2978,127,2022-06-01T08:35:49.190Z
 grass, money,a vein, grass,,trial,,,10641,1,3048,128,2022-06-01T08:36:01.429Z
 money, grass,orange, money,,trial,,,3278.800000190735,1,3049,129,2022-06-01T08:36:04.708Z
toad,seal,lamb,,63,feedback,,,6137.099999904633,1,3050,130,2022-06-01T08:36:10.848Z
to grow, under,pink,pink,,trial,,,5105.89999961853,1,3114,131,2022-06-01T08:36:15.957Z
a family,pink, under, under,,trial,,,2737.1000003814697,1,3124,132,2022-06-01T08:36:18.695Z
rooster,sheep,mouse,,34,feedback,,,7646.900000095367,1,3134,133,2022-06-01T08:36:26.344Z
a heel,to believe, weak, weak,,trial,,,6726.799999713898,1,3202,134,2022-06-01T08:36:40.100Z
a picture, weak,to believe,to believe,,trial,,,4200,1,3212,135,2022-06-01T08:36:44.300Z
alligator,dolphin,cow,,41,feedback,,,11179.099999904633,1,3222,136,2022-06-01T08:36:55.482Z
 grass,to sell, week, week,,trial,,,125129.2000002861,1,3277,137,2022-06-01T08:39:00.615Z
a chair, week,to sell,to sell,,trial,,,2930.699999809265,1,3287,138,2022-06-01T08:39:03.545Z
peacock,zebra,elk,,34,feedback,,,5228.400000095367,1,3297,139,2022-06-01T08:39:08.777Z
 clothes,a needle,a business, clothes,,trial,,,10145.599999904633,1,3354,140,2022-06-01T08:39:21.673Z
a needle, clothes,to bother,a needle,,trial,,,20662.400000095367,1,3355,141,2022-06-01T08:39:42.335Z
rattlesnake,tiger,dolphin,,61,feedback,,,38076,1,3356,142,2022-06-01T08:40:20.416Z
 clever,to choose,a needle, clever,,trial,,,6752.900000095367,1,3417,143,2022-06-01T08:40:27.172Z
to choose, clever,yellow,yellow,,trial,,,2950.300000190735,1,3418,144,2022-06-01T08:40:30.122Z
white,yellow, clever,white,,trial,,,3431.9000000953674,1,3428,145,2022-06-01T08:40:33.554Z
yellow,white,a grandfather,yellow,,trial,,,2167.2999997138977,1,3429,146,2022-06-01T08:40:35.721Z
deer,bat,alligator,,64,feedback,,,8869,1,3430,147,2022-06-01T08:40:44.593Z
 hair,a family, gentle, gentle,,trial,,,36974.2000002861,1,3489,148,2022-06-01T08:41:22.874Z
 power, gentle,a family,a family,,trial,,,2557.5,1,3499,149,2022-06-01T08:41:25.432Z
chimp,beaver,turtle,,67,feedback,,,102784.90000009537,1,3509,150,2022-06-01T08:43:08.220Z
to bother, hair,a cheek,a cheek,,trial,,,5988.400000095367,1,3587,151,2022-06-01T08:43:15.482Z
brown,a cheek, hair, hair,,trial,,,4206.400000095367,1,3597,152,2022-06-01T08:43:19.688Z
duck,turkey,dog,,68,feedback,,,11889.799999713898,1,3607,153,2022-06-01T08:43:31.581Z
to know,to know, meat,to know,,catch,,,2983.9000000953674,1,3660,154,2022-06-01T08:43:34.569Z
chimp,goat,chicken,,64,feedback,,,4425.200000286102,1,3661,155,2022-06-01T08:43:38.999Z
to arrive,to arrive,a chair,to arrive,,catch,,,1926.6999998092651,1,3739,156,2022-06-01T08:43:42.367Z
cougar,seal,frog,,61,feedback,,,6320.200000286102,1,3740,157,2022-06-01T08:43:48.689Z
a collar, sad,a pillow,a pillow,,trial,,,3254.7999997138977,1,3813,158,2022-06-01T08:45:19.358Z
 milk,a pillow, sad, sad,,trial,,,3071.7000002861023,1,3823,159,2022-06-01T08:45:22.430Z
gorilla,sheep,chicken,,75,feedback,,,2461.8999996185303,1,3833,160,2022-06-01T08:45:24.895Z
 dirt, chest, pain, pain,,trial,,,2581.300000190735,1,3880,161,2022-06-01T08:45:28.981Z
 naked, pain, chest, chest,,trial,,,4297.099999904633,1,3890,162,2022-06-01T08:45:33.278Z
dolphin,goat,chicken,,61,feedback,,,5799.900000095367,1,3900,163,2022-06-01T08:45:39.081Z
a month,a shelf, soft,a month,,trial,,,19241.10000038147,1,3957,164,2022-06-01T08:46:00.085Z
a shelf,a month,a chair,a shelf,,trial,,,4542.599999904633,1,3958,165,2022-06-01T08:46:04.627Z
zebra,horse,chicken,,69,feedback,,,3596.2999997138977,1,3959,166,2022-06-01T08:46:08.227Z
an arm,a roof,black,black,,trial,,,60001,1,4010,167,2022-06-01T08:47:10.748Z
a grandfather,black,a roof,a roof,,trial,,,3089,1,4020,168,2022-06-01T08:47:13.837Z
pig,bat,alligator,,39,feedback,,,10699.300000190735,1,4030,169,2022-06-01T08:47:24.539Z
 grief, gentle, power, power,,trial,,,2336,1,4098,170,2022-06-01T08:47:27.978Z
a woman, power, gentle, gentle,,trial,,,1887,1,4108,171,2022-06-01T08:47:29.865Z
crocodile,gorilla,fawn,,62,feedback,,,4274.299999713898,1,4118,172,2022-06-01T08:47:34.142Z
to teach,a shoe, memory,to teach,,trial,,,9326,1,4173,173,2022-06-01T08:47:43.472Z
a shoe,to teach,to know,to know,,trial,,,5083.39999961853,1,4174,174,2022-06-01T08:47:48.555Z
 weak,to know,to teach,to teach,,trial,,,18210.200000286102,1,4184,175,2022-06-01T08:48:06.765Z
pig,tiger,alligator,,64,feedback,,,5815.5,1,4194,176,2022-06-01T08:48:12.585Z
 source,a cloud,a table, source,,trial,,,19395.5,1,4272,177,2022-06-01T08:48:33.497Z
a cloud, source, people,a cloud,,trial,,,2645.800000190735,1,4273,178,2022-06-01T08:48:36.142Z
rooster,pig,gorilla,,32,feedback,,,5075,1,4274,179,2022-06-01T08:48:41.220Z
 week,to sell, grass, week,,trial,,,3502.0999999046326,1,4338,180,2022-06-01T08:48:46.163Z
to sell, week,to arrive,to arrive,,trial,,,3217.7000002861023,1,4339,181,2022-06-01T08:48:49.381Z
 sad,to arrive, week, week,,trial,,,2432.199999809265,1,4349,182,2022-06-01T08:48:51.813Z
pony,bat,rattlesnake,,39,feedback,,,10467.799999713898,1,4359,183,2022-06-01T08:49:02.286Z
 source,a cloud,a table, source,,trial,,,3551.2000002861023,1,4450,184,2022-06-01T08:49:15.331Z
a cloud, source, people,a cloud,,trial,,,8182.799999713898,1,4451,185,2022-06-01T08:49:23.514Z
peacock,horse,fawn,,41,feedback,,,6302.5,1,4452,186,2022-06-01T08:49:29.820Z
to bother, hair,a cheek,a cheek,,trial,,,2594.9000000953674,1,4496,187,2022-06-01T08:49:35.004Z
a corner,a cheek, hair, hair,,trial,,,26948.39999961853,1,4506,188,2022-06-01T08:50:01.952Z
perch,dolphin,pony,,28,feedback,,,3616.699999809265,1,4516,189,2022-06-01T08:50:05.572Z
a table,a cloud, source, source,,trial,,,3505.699999809265,1,4550,190,2022-06-01T08:50:09.083Z
 people, source,a cloud,a cloud,,trial,,,5256.800000190735,1,4560,191,2022-06-01T08:50:14.340Z
chicken,dog,bat,,39,feedback,,,7182.60000038147,1,4570,192,2022-06-01T08:50:21.525Z
a box,a woman,to sell,a box,,trial,,,3397.9000000953674,1,4627,193,2022-06-01T08:50:26.175Z
a woman,a box,a story,a woman,,trial,,,2909.2999997138977,1,4628,194,2022-06-01T08:50:29.085Z
camel,seal,perch,,44,feedback,,,5878,1,4629,195,2022-06-01T08:50:34.966Z
brown,a nose,a corner,brown,,trial,,,4087.5,1,4715,196,2022-06-01T08:50:42.466Z
a nose,brown,to deceive,a nose,,trial,,,12763.200000286102,1,4716,197,2022-06-01T08:50:55.229Z
camel,seal,alligator,,36,feedback,,,36838.90000009537,1,4717,198,2022-06-01T08:51:32.072Z
a heel,to believe, weak,a heel,,trial,,,5850.800000190735,1,4800,199,2022-06-01T08:51:40.209Z
to believe,a heel, memory,to believe,,trial,,,2002.4000000953674,1,4801,200,2022-06-01T08:51:42.212Z
duck,caribou,bat,,67,feedback,,,21350,1,4802,201,2022-06-01T08:52:03.564Z
a woman, power,yellow,a woman,,trial,,,2714,1,4866,202,2022-06-01T08:52:08.836Z
 power,a woman,a box, power,,trial,,,1965.4000000953674,1,4867,203,2022-06-01T08:52:10.801Z
cougar,bat,rattlesnake,,73,feedback,,,130152.7000002861,1,4868,204,2022-06-01T08:54:20.956Z
a roof, people,a heel,a heel,,trial,,,2077.2000002861023,1,4901,205,2022-06-01T08:54:24.324Z
 memory,a heel, people, people,,trial,,,12406.799999713898,1,4911,206,2022-06-01T08:54:36.731Z
fawn,bat,rattlesnake,,77,feedback,,,15372.400000095367,1,4921,207,2022-06-01T08:54:52.106Z
brown,a cheek, pain, pain,,trial,,,19844.699999809265,1,4948,208,2022-06-01T08:55:13.359Z
 naked, pain,a cheek, naked,,trial,,,2954.5999999046326,1,4958,209,2022-06-01T08:55:16.314Z
 pain, naked,gray, pain,,trial,,,5910.200000286102,1,4959,210,2022-06-01T08:55:22.224Z
toad,vulture,rooster,,68,feedback,,,2741.300000190735,1,4960,211,2022-06-01T08:55:24.969Z
green,a leg, pain, pain,,trial,,,2286.5,1,4972,212,2022-06-01T08:55:28.764Z
a knife, pain,a leg,a leg,,trial,,,2070.5,1,4982,213,2022-06-01T08:55:30.835Z
crab,dolphin,chimp,,39,feedback,,,2584.800000190735,1,4992,214,2022-06-01T08:55:33.422Z
to read, dirt,orange,to read,,trial,,,2594.9000000953674,1,5049,215,2022-06-01T08:55:37.285Z
 dirt,to read, child, dirt,,trial,,,1663.7999997138977,1,5050,216,2022-06-01T08:55:38.949Z
toad,dolphin,cougar,,37,feedback,,,3124.4000000953674,1,5051,217,2022-06-01T08:55:42.076Z
 grief, gentle, power, grief,,trial,,,1837.4000000953674,1,5119,218,2022-06-01T08:55:45.024Z
 gentle, grief, naked, gentle,,trial,,,1771.1999998092651,1,5120,219,2022-06-01T08:55:46.796Z
chicken,horse,dolphin,,67,feedback,,,2141,1,5121,220,2022-06-01T08:55:48.939Z
to believe, weak,a picture,to believe,,trial,,,1469.0999999046326,1,5180,221,2022-06-01T08:55:51.587Z
 weak,to believe,a heel, weak,,trial,,,660350.4000000954,1,5181,222,2022-06-01T09:06:51.937Z
dolphin,coyote,iguana,,85,feedback,,,2147.800000190735,1,5182,223,2022-06-01T09:06:54.088Z
a chair, week,to arrive,to arrive,,trial,,,1980.2999997138977,1,5218,224,2022-06-01T09:06:57.321Z
 sad,to arrive, week, week,,trial,,,2826.800000190735,1,5228,225,2022-06-01T09:07:00.148Z
,,,,46,feedback,,,7041.60000038147,1,5238,226,2022-06-01T09:07:07.193Z
a roof, people,a heel,a heel,,trial,,,4638.699999809265,1,,227,2022-06-01T09:07:15.613Z
 memory,a heel, people, memory,,trial,,,2032.1000003814697,1,,228,2022-06-01T09:07:17.645Z
a heel, memory,to eat,to eat,,trial,,,1687.7999997138977,1,,229,2022-06-01T09:07:19.333Z
 country,to eat, memory, country,,trial,,,2722.4000000953674,1,,230,2022-06-01T09:07:22.055Z
to eat, country, money,to eat,,trial,,,2094.5,1,,231,2022-06-01T09:07:24.150Z
,,,,77,feedback,,,2385.8999996185303,1,,232,2022-06-01T09:07:26.540Z
to hear,a story, child,to hear,,trial,,,92.5,1,,233,2022-06-01T09:07:31.010Z
a story,to hear, life,a story,,trial,,,930.7000002861023,1,,234,2022-06-01T09:07:31.941Z
,,,,49,feedback,,,2242.4000000953674,1,,235,2022-06-01T09:07:34.186Z
 chest,black, thick, chest,,trial,,,1751.0999999046326,2,0,2,2022-06-01T09:07:47.795Z
