sliders,choices,rt,default,left_words,max,max_duration,min,question_type,right_words,slider_words,triad_mix,trial,trial_num
"54,16,71,14","true,true,true,true","10225.299999952316,4509.300000011921,5027.900000035763,4287.099999964237",50,"desk,desk,desk,desk",100,12,0,type1,"cabinet,cabinet,cabinet,cabinet","cushion,couch,door,chair",80% type 1/20% type 3,8,3
"22,100,89,30","true,true,true,true","4696.099999964237,5414.100000023842,4580.5,5826.399999976158",50,"bike,bike,bike,bike",100,12,0,type1,"submarine,submarine,submarine,submarine","wagon,ship,airplane,train",80% type 1/20% type 3,34,4
"50,51,93,50","true,true,true,true","5372.599999964237,4735.900000035763,3700.300000011921,4287.5",50,"couch,couch,couch,couch",100,12,0,type1,"chair,chair,chair,chair","cushion,door,desk,cabinet",80% type 1/20% type 3,29,5
"50,33,67,31","true,true,true,true","9628.199999988079,7418.699999988079,3945.800000011921,5744.100000023842",50,"allow,allow,allow,allow",100,12,0,type1,"protect,protect,protect,protect","use,work,make,exist",80% type 1/20% type 3,18,6
"12,50,50,50","true,true,true,true","6753.399999976158,3128.699999988079,2706,3399.400000035763",50,"pot,pot,pot,pot",100,12,0,type1,"oven,oven,oven,oven","dish,scissors,knife,fork",80% type 1/20% type 3,9,7
"88,33,50,50","true,true,true,true","5399,7003.600000023842,3675.100000023842,2876.699999988079",50,"necklace,necklace,necklace,necklace",100,12,0,type1,"shirt,shirt,shirt,shirt","coat,dress,belt,gloves",80% type 1/20% type 3,45,8
"79,0,64,52","true,true,true,true","6285,2780,7122.800000011921,5883.199999988079",50,"ship,ship,ship,ship",100,12,0,type1,"airplane,airplane,airplane,airplane","train,submarine,wagon,bike",80% type 1/20% type 3,13,9
"0,100,63,9","true,true,true,true","3424.199999988079,2560,4010.100000023842,3577",50,"fork,fork,fork,fork",100,12,0,type1,"dish,dish,dish,dish","knife,pot,oven,scissors",80% type 1/20% type 3,37,10
"63,55,100,50","true,true,true,true","7655,6178.900000035763,2257.699999988079,3251",50,"radio,radio,radio,radio",100,12,0,type1,"toy,toy,toy,toy","hammer,brush,doll,pen",80% type 1/20% type 3,26,11
"0,50,15,16","true,true,true,true","3308.100000023842,2558.199999988079,5617.800000011921,3632.899999976158",50,"pot,pot,pot,pot",100,12,0,type3,"cushion,cushion,cushion,cushion","oven,scissors,knife,fork",80% type 1/20% type 3,63,12
"88,22,51,42","true,true,true,true","5211,4172.900000035763,3186.399999976158,8874.400000035763",50,"door,door,door,door",100,12,0,type1,"desk,desk,desk,desk","chair,cabinet,cushion,couch",80% type 1/20% type 3,22,13
"40,73,34,50","true,true,true,true","8640.599999964237,5574.5,4133.400000035763,1953.199999988079",50,"make,make,make,make",100,12,0,type1,"allow,allow,allow,allow","work,protect,find,exist",80% type 1/20% type 3,39,14
0,true,3362.2000000476837,50,left,100,12,0,catch,right,move this slider to the left,80% type 1/20% type 3,5,15
"62,61,61,50","true,true,true,true","7128.600000023842,3994,3194.5,4571.200000047684",50,"mouse,mouse,mouse,mouse",100,12,0,type1,"fox,fox,fox,fox","alligator,buffalo,octopus,squirrel",80% type 1/20% type 3,42,16
100,true,3744.100000023842,50,left,100,12,0,catch,right,move this slider to the right,80% type 1/20% type 3,6,17
"97,96,98,86","true,true,true,true","6918.5,3202.300000011921,4655.5,9378.600000023842",50,"knife,knife,knife,knife",100,12,0,type3,"airplane,airplane,airplane,airplane","ship,train,submarine,bike",80% type 1/20% type 3,65,18
"34,50,50,50","true,true,true,true","8038.300000011921,3122.600000023842,1646.7999999523163,2337.600000023842",50,"knife,knife,knife,knife",100,12,0,type1,"fork,fork,fork,fork","scissors,pot,dish,oven",80% type 1/20% type 3,16,19
"32,100,22,40",",true,true,true",",4707.399999976158,10106.800000011921,3632.800000011921",50,"airplane,airplane,airplane,airplane",100,12,0,type1,"ship,ship,ship,ship","wagon,submarine,train,bike",80% type 1/20% type 3,20,20
"31,17,64,100","true,true,true,true","5301.399999976158,5721.400000035763,3023.300000011921,3038.599999964237",50,"desk,desk,desk,desk",100,12,0,type1,"cushion,cushion,cushion,cushion","door,chair,cabinet,couch",80% type 1/20% type 3,50,21
"10,58,68,50","true,true,true,true","4436.799999952316,6846.300000011921,3619.600000023842,4502.900000035763",50,"gloves,gloves,gloves,gloves",100,12,0,type1,"belt,belt,belt,belt","coat,dress,necklace,shirt",80% type 1/20% type 3,31,22
"26,36,50,50","true,true,true,true","11435.5,4964.300000011921,3520.699999988079,4196.599999964237",50,"pen,pen,pen,pen",100,12,0,type3,"gloves,gloves,gloves,gloves","brush,radio,doll,toy",80% type 1/20% type 3,61,23
"34,13,36,24","true,true,true,true","6408.899999976158,6406.600000023842,3293.5,3315",50,"wagon,wagon,wagon,wagon",100,12,0,type3,"exist,exist,exist,exist","airplane,bike,ship,train",80% type 1/20% type 3,58,24
"96,94,87,87","true,true,true,true","4934.5,2161.199999988079,1882.800000011921,3193.099999964237",50,"allow,allow,allow,allow",100,12,0,type3,"chair,chair,chair,chair","cabinet,desk,door,cushion",80% type 1/20% type 3,60,25
"100,94,99,95","true,true,true,true","2672,2376.5,2810.599999964237,2362.600000023842",50,"oven,oven,oven,oven",100,12,0,type1,"fork,fork,fork,fork","knife,scissors,dish,pot",80% type 1/20% type 3,44,26
"45,0,39,42","true,true,true,true","5095.800000011921,4695.699999988079,3015.800000011921,4293",50,"scissors,scissors,scissors,scissors",100,12,0,type3,"cushion,cushion,cushion,cushion","oven,fork,pot,dish",80% type 1/20% type 3,56,27
"21,75,72,50","true,true,true,true","7970.5,3542.800000011921,2689.600000023842,1424.699999988079",50,"gloves,gloves,gloves,gloves",100,12,0,type1,"belt,belt,belt,belt","coat,dress,necklace,shirt",80% type 1/20% type 3,52,28
"83,33,100,89","true,true,true,true","4224.899999976158,2813.100000023842,3301.300000011921,2206.699999988079",50,"oven,oven,oven,oven",100,12,0,type1,"knife,knife,knife,knife","dish,pot,fork,scissors",80% type 1/20% type 3,51,29
"0,0,0,0","true,true,true,true","3708.199999988079,2868.5,2299.2000000476837,2311.599999964237",50,"elephant,elephant,elephant,elephant",100,12,0,type3,"work,work,work,work","turtle,clam,dolphin,buffalo",80% type 1/20% type 3,62,30
"50,28,50,30","true,true,true,true","5486.399999976158,2935.100000023842,1948.199999988079,3535",50,"make,make,make,make",100,12,0,type1,"protect,protect,protect,protect","allow,work,exist,find",80% type 1/20% type 3,11,31
"87,30,50,32","true,true,true,true","4294.300000011921,6040.100000023842,2281.300000011921,3624.099999964237",50,"shirt,shirt,shirt,shirt",100,12,0,type1,"coat,coat,coat,coat","gloves,belt,necklace,dress",80% type 1/20% type 3,38,32
"0,0,0,0","true,true,true,true","3332.5,2934.899999976158,2380.100000023842,2451",50,"snail,snail,snail,snail",100,12,0,type3,"brush,brush,brush,brush","squirrel,mouse,octopus,buffalo",80% type 1/20% type 3,55,33
"74,72,0,53","true,true,true,true","5442.5,2902,2192.599999964237,2867.199999988079",50,"couch,couch,couch,couch",100,12,0,type1,"cabinet,cabinet,cabinet,cabinet","door,desk,cushion,chair",80% type 1/20% type 3,15,34
"50,50,50,0","true,true,true,true","4675.300000011921,6699.599999964237,1720.4000000357628,3199.899999976158",50,"doll,doll,doll,doll",100,12,0,type1,"hammer,hammer,hammer,hammer","radio,brush,pen,toy",80% type 1/20% type 3,12,35
"0,71,31,30","true,true,true,true","4660.099999964237,4386.300000011921,3733.300000011921,2613.699999988079",50,"mouse,mouse,mouse,mouse",100,12,0,type1,"clam,clam,clam,clam","squirrel,alligator,buffalo,elephant",80% type 1/20% type 3,28,36
"50,50,50,50","true,true,true,true","3231.699999988079,3253,2534.300000011921,1774.699999988079",50,"pen,pen,pen,pen",100,12,0,type1,"radio,radio,radio,radio","hammer,toy,doll,brush",80% type 1/20% type 3,19,37
0,true,2929.2999999523163,50,left,100,12,0,catch,right,move this slider to the left,80% type 1/20% type 3,3,38
100,true,2311.7000000476837,50,left,100,12,0,catch,right,move this slider to the right,80% type 1/20% type 3,4,39
"50,77,23,50","true,true,true,true","2474.599999964237,2934.5,2796,3339",50,"allow,allow,allow,allow",100,12,0,type1,"make,make,make,make","exist,work,use,find",80% type 1/20% type 3,32,40
"50,75,37,20","true,true,true,true","4143.699999988079,5647.800000011921,4101,3600.600000023842",50,"dress,dress,dress,dress",100,12,0,type1,"necklace,necklace,necklace,necklace","belt,shirt,gloves,coat",80% type 1/20% type 3,24,41
"96,0,99,19","true,true,true,true","5993.300000011921,2722.699999988079,4516.599999964237,4593.800000011921",50,"turtle,turtle,turtle,turtle",100,12,0,type1,"fox,fox,fox,fox","lion,alligator,mouse,snail",80% type 1/20% type 3,14,42
"78,78,0,77","true,true,true,true","5042.400000035763,2740.899999976158,2559.5,3396",50,"ship,ship,ship,ship",100,12,0,type1,"airplane,airplane,airplane,airplane","wagon,bike,submarine,train",80% type 1/20% type 3,27,43
"71,50,75,50",",true,true,true",",8162.600000023842,7466.899999976158,3119.300000011921",50,"belt,belt,belt,belt",100,12,0,type1,"necklace,necklace,necklace,necklace","dress,coat,shirt,gloves",80% type 1/20% type 3,17,44
"24,100,50,50","true,true,true,true","6382.5,3726.399999976158,3935.7000000476837,3967.099999964237",50,"octopus,octopus,octopus,octopus",100,12,0,type1,"clam,clam,clam,clam","lion,snail,squirrel,turtle",80% type 1/20% type 3,21,45
"15,19,88,0","true,true,true,true","5331.800000011921,6054.399999976158,3736.399999976158,4757.200000047684",50,"lion,lion,lion,lion",100,12,0,type1,"alligator,alligator,alligator,alligator","mouse,elephant,clam,zebra",80% type 1/20% type 3,49,46
"23,97,97,0","true,true,true,true","5008.699999988079,3538.800000011921,4426.399999976158,4350.399999976158",50,"pot,pot,pot,pot",100,12,0,type1,"scissors,scissors,scissors,scissors","dish,knife,fork,oven",80% type 1/20% type 3,30,47
"73,72,17,100","true,true,true,true","6075.5,2926.5,3155,2671.600000023842",50,"door,door,door,door",100,12,0,type1,"desk,desk,desk,desk","cushion,couch,cabinet,chair",80% type 1/20% type 3,43,48
"50,50,50,50","true,true,true,true","5396.300000011921,2560.600000023842,3154,1595.300000011921",50,"protect,protect,protect,protect",100,12,0,type1,"exist,exist,exist,exist","allow,make,use,find",80% type 1/20% type 3,46,49
"71,33,37,73","true,true,true,true","5958.399999976158,2934.400000035763,2469.599999964237,2345.900000035763",50,"wagon,wagon,wagon,wagon",100,12,0,type1,"bike,bike,bike,bike","airplane,ship,submarine,train",80% type 1/20% type 3,48,50
"0,0,0,0","true,true,true,true","4005.900000035763,4452.199999988079,2583.600000023842,1970.199999988079",50,"make,make,make,make",100,12,0,type3,"chair,chair,chair,chair","use,work,allow,protect",80% type 1/20% type 3,57,51
"32,72,32,50","true,true,true,true","10330.600000023842,4295.699999988079,7295.5,1718.300000011921",50,"protect,protect,protect,protect",100,12,0,type1,"work,work,work,work","find,make,use,exist",80% type 1/20% type 3,25,52
"94,7,16,85","true,true,true,true","4258.100000023842,3684.5,4131.699999988079,2655.300000011921",50,"fox,fox,fox,fox",100,12,0,type1,"elephant,elephant,elephant,elephant","alligator,squirrel,turtle,dolphin",80% type 1/20% type 3,35,53
"90,6,0,50","true,true,true,true","4019.099999964237,2805.699999988079,2877,3069.600000023842",50,"dolphin,dolphin,dolphin,dolphin",100,12,0,type1,"mouse,mouse,mouse,mouse","clam,lion,alligator,buffalo",80% type 1/20% type 3,7,54
"0,0,0,0","true,true,true,true","3189.100000023842,2208.899999976158,2070.199999988079,2516.5",50,"use,use,use,use",100,12,0,type3,"fork,fork,fork,fork","allow,make,protect,exist",80% type 1/20% type 3,64,55
"50,50,50,50","true,true,true,true","3142.5,2453.100000023842,2176.699999988079,1970.5",50,"brush,brush,brush,brush",100,12,0,type1,"pen,pen,pen,pen","hammer,toy,doll,radio",80% type 1/20% type 3,40,56
"100,100,100,100","true,true,true,true","4753.5,1654.300000011921,1728.6000000238419,1758.5999999642372",50,"squirrel,squirrel,squirrel,squirrel",100,12,0,type3,"dress,dress,dress,dress","belt,shirt,coat,necklace",80% type 1/20% type 3,59,57
"50,20,55,3","true,true,true,true","4966,3317.7999999523163,5125.600000023842,5956.899999976158",50,"shirt,shirt,shirt,shirt",100,12,0,type1,"belt,belt,belt,belt","gloves,coat,dress,necklace",80% type 1/20% type 3,10,58
"50,33,69,50","true,true,true,true","3857.099999964237,2730.300000011921,4923.899999976158,2254.900000035763",50,"find,find,find,find",100,12,0,type1,"protect,protect,protect,protect","exist,work,allow,use",80% type 1/20% type 3,53,59
"50,50,50,50","true,true,true,true","8573,2625.600000023842,2933.099999964237,2345.600000023842",50,"toy,toy,toy,toy",100,12,0,type1,"doll,doll,doll,doll","radio,pen,brush,hammer",80% type 1/20% type 3,47,60
"8,90,100,28","true,true,true,true","3445.100000023842,2298.199999988079,2332,2647.399999976158",50,"oven,oven,oven,oven",100,12,0,type1,"fork,fork,fork,fork","pot,scissors,knife,dish",80% type 1/20% type 3,23,61
"34,34,27,21","true,true,true,true","6128.399999976158,2787.400000035763,3326.399999976158,2835.5",50,"couch,couch,couch,couch",100,12,0,type1,"cushion,cushion,cushion,cushion","cabinet,chair,desk,door",80% type 1/20% type 3,36,62
"100,100,100,100","true,true,true,true","4653.400000035763,1924,1719.8999999761581,1668.300000011921",50,"octopus,octopus,octopus,octopus",100,12,0,type3,"gloves,gloves,gloves,gloves","coat,dress,shirt,belt",80% type 1/20% type 3,66,63
"84,30,18,31","true,true,true,true","6595.599999964237,2283.400000035763,3479.300000011921,3600.2999999523163",50,"train,train,train,train",100,12,0,type1,"bike,bike,bike,bike","wagon,ship,airplane,submarine",80% type 1/20% type 3,41,64
"50,50,50,50","true,true,true,true","2651.5,2305.899999976158,1606,1685",50,"toy,toy,toy,toy",100,12,0,type1,"hammer,hammer,hammer,hammer","radio,brush,pen,doll",80% type 1/20% type 3,33,65
"50,50,50,50","true,true,true,true","3116.399999976158,1124.9000000357628,807.0999999642372,1236.6000000238419",50,"toy,toy,toy,toy",100,12,0,type1,"doll,doll,doll,doll","pen,brush,hammer,radio",80% type 1/20% type 3,54,66
