sliders,choices,rt,default,left_words,max,max_duration,min,question_type,right_words,slider_words,triad_mix,trial,trial_num
"82,0,32,33","true,true,true,true","5003.699999928474,2953.9000000953674,3542.4000000953674,3253.5999999046326",50,"doll,doll,doll,doll",100,12,0,type3,"wagon,wagon,wagon,wagon","hammer,toy,pen,brush",50% type 1/50% type 3,63,3
"0,28,7,8","true,true,true,true","3160.2000000476837,5499.600000023842,3552.6999999284744,3932.600000023842",50,"turtle,turtle,turtle,turtle",100,12,0,type3,"protect,protect,protect,protect","squirrel,mouse,dolphin,alligator",50% type 1/50% type 3,61,4
"1,29,90,74","true,true,true,true","6662.399999976158,4102.100000023842,4199.899999976158,4826.199999928474",50,"exist,exist,exist,exist",100,12,0,type1,"allow,allow,allow,allow","find,make,use,work",50% type 1/50% type 3,13,5
"100,78,78,79","true,true,true,true","4673.600000023842,3058.5,3162.9000000953674,3137.7999999523163",50,"brush,brush,brush,brush",100,12,0,type3,"shirt,shirt,shirt,shirt","coat,gloves,necklace,dress",50% type 1/50% type 3,51,6
"4,19,67,67","true,true,true,true","5490.399999976158,6081.800000071526,3764.5,3895.2999999523163",50,"allow,allow,allow,allow",100,12,0,type3,"submarine,submarine,submarine,submarine","use,find,protect,exist",50% type 1/50% type 3,64,7
"67,31,60,62","true,true,false,true","4999.899999976158,4649.800000071526,6225.299999952316,6102",50,"radio,radio,radio,radio",100,12,0,type1,"hammer,hammer,hammer,hammer","toy,doll,pen,brush",50% type 1/50% type 3,7,8
"35,17,72,45","true,true,true,true","5713.399999976158,4271.300000071526,2959.5,3592",50,"exist,exist,exist,exist",100,12,0,type3,"dish,dish,dish,dish","protect,work,make,find",50% type 1/50% type 3,50,9
"100,46,81,100","true,true,true,true","2907.100000023842,5618.399999976158,3295.600000023842,4194.599999904633",50,"radio,radio,radio,radio",100,12,0,type1,"doll,doll,doll,doll","toy,hammer,pen,brush",50% type 1/50% type 3,35,10
"32,80,81,33","true,true,true,true","3760.8000000715256,2948.5999999046326,3071.9000000953674,3052.5999999046326",50,"snail,snail,snail,snail",100,12,0,type1,"squirrel,squirrel,squirrel,squirrel","clam,fox,lion,turtle",50% type 1/50% type 3,33,11
"16,16,20,81","true,true,true,true","6214.699999928474,7607.5,5471.700000047684,4862.799999952316",50,"use,use,use,use",100,12,0,type1,"allow,allow,allow,allow","work,make,find,exist",50% type 1/50% type 3,34,12
"89,92,90,49","true,true,true,false","3258.600000023842,4707.399999976158,2458.600000023842,3961.7000000476837",50,"radio,radio,radio,radio",100,12,0,type1,"brush,brush,brush,brush","doll,toy,pen,hammer",50% type 1/50% type 3,14,13
"7,0,29,85","true,true,true,true","5096.699999928474,5782.700000047684,4411.099999904633,2931.7000000476837",50,"wagon,wagon,wagon,wagon",100,12,0,type3,"brush,brush,brush,brush","radio,hammer,toy,pen",50% type 1/50% type 3,49,14
100,true,3980.100000023842,50,left,100,12,0,catch,right,move this slider to the right,50% type 1/50% type 3,4,15
"78,29,70,0","true,true,true,true","5186.899999976158,4681.5,4600,2801.7000000476837",50,"submarine,submarine,submarine,submarine",100,12,0,type1,"airplane,airplane,airplane,airplane","train,wagon,bike,ship",50% type 1/50% type 3,30,16
"0,0,0,100","true,true,true,true","4942.5,3028.6999999284744,2594.100000023842,3607.100000023842",50,"couch,couch,couch,couch",100,12,0,type3,"dish,dish,dish,dish","door,desk,cushion,cabinet",50% type 1/50% type 3,41,17
"28,0,0,2","true,true,true,true","4112.399999976158,4833,2893.8000000715256,3021.6999999284744",50,"door,door,door,door",100,12,0,type1,"cabinet,cabinet,cabinet,cabinet","chair,cushion,couch,desk",50% type 1/50% type 3,11,18
0,true,3286.6999999284744,50,left,100,12,0,catch,right,move this slider to the left,50% type 1/50% type 3,5,19
"0,0,0,0","true,true,true,true","3823.7999999523163,2843.2000000476837,3013.5,2718",50,"airplane,airplane,airplane,airplane",100,12,0,type3,"elephant,elephant,elephant,elephant","bike,ship,submarine,train",50% type 1/50% type 3,60,20
"0,0,0,0","true,true,true,true","3671.3000000715256,2610.600000023842,3542.5999999046326,2528.3000000715256",50,"mouse,mouse,mouse,mouse",100,12,0,type3,"brush,brush,brush,brush","turtle,zebra,clam,buffalo",50% type 1/50% type 3,47,21
"100,100,100,100","true,true,true,true","3227.5,2799.899999976158,1731.6999999284744,2229.9000000953674",50,"squirrel,squirrel,squirrel,squirrel",100,12,0,type3,"chair,chair,chair,chair","desk,cabinet,couch,cushion",50% type 1/50% type 3,62,22
"0,0,100,0","true,true,true,true","3435.2000000476837,2416.2999999523163,4147.100000023842,2606.399999976158",50,"couch,couch,couch,couch",100,12,0,type3,"dish,dish,dish,dish","cushion,chair,cabinet,door",50% type 1/50% type 3,55,23
"21,23,0,100","true,true,true,true","7034.900000095367,4784.599999904633,3861.9000000953674,2390.5",50,"dress,dress,dress,dress",100,12,0,type1,"coat,coat,coat,coat","necklace,shirt,belt,gloves",50% type 1/50% type 3,24,24
"100,27,22,0","true,true,true,true","2661.5,2932.4000000953674,3020.6999999284744,3420.8000000715256",50,"dress,dress,dress,dress",100,12,0,type1,"gloves,gloves,gloves,gloves","coat,shirt,necklace,belt",50% type 1/50% type 3,31,25
"90,0,93,100","true,true,true,true","4167.699999928474,3047.600000023842,4709.200000047684,2127.2999999523163",50,"octopus,octopus,octopus,octopus",100,12,0,type1,"elephant,elephant,elephant,elephant","zebra,dolphin,fox,lion",50% type 1/50% type 3,19,26
"0,0,62,18","true,true,true,true","4478.899999976158,3598.2000000476837,4612.899999976158,2571.899999976158",50,"work,work,work,work",100,12,0,type1,"allow,allow,allow,allow","find,use,exist,make",50% type 1/50% type 3,20,27
"85,0,0,89","true,true,true,true","5851.899999976158,2983.600000023842,3092,4920.399999976158",50,"shirt,shirt,shirt,shirt",100,12,0,type1,"necklace,necklace,necklace,necklace","belt,coat,dress,gloves",50% type 1/50% type 3,10,28
0,true,2750.7000000476837,50,left,100,12,0,catch,right,move this slider to the left,50% type 1/50% type 3,3,29
100,true,2156.5,50,left,100,12,0,catch,right,move this slider to the right,50% type 1/50% type 3,6,30
"100,100,100,100","true,true,true,true","4784,4017.2999999523163,1772.5,1938.3000000715256",50,"knife,knife,knife,knife",100,12,0,type3,"belt,belt,belt,belt","gloves,dress,necklace,coat",50% type 1/50% type 3,44,31
"72,15,0,100","true,true,true,true","3206.2999999523163,5591.200000047684,7202,2730",50,"use,use,use,use",100,12,0,type3,"toy,toy,toy,toy","radio,pen,hammer,doll",50% type 1/50% type 3,42,32
"9,89,13,3","true,true,true,true","5942.300000071526,5715.199999928474,4693.300000071526,3115.7999999523163",50,"chair,chair,chair,chair",100,12,0,type1,"cushion,cushion,cushion,cushion","desk,couch,door,cabinet",50% type 1/50% type 3,18,33
"12,100,6,100","true,true,true,true","4058.5999999046326,3489.2000000476837,3718,2162.7000000476837",50,"pot,pot,pot,pot",100,12,0,type1,"fork,fork,fork,fork","oven,knife,dish,scissors",50% type 1/50% type 3,15,34
"100,100,100,100","true,true,true,true","3058.0999999046326,2101.3000000715256,2210.5,2506.399999976158",50,"radio,radio,radio,radio",100,12,0,type3,"knife,knife,knife,knife","fork,oven,pot,scissors",50% type 1/50% type 3,52,35
"34,57,39,0","true,true,true,true","4805.100000023842,4754.700000047684,4574.100000023842,2915.2999999523163",50,"zebra,zebra,zebra,zebra",100,12,0,type1,"buffalo,buffalo,buffalo,buffalo","clam,octopus,snail,lion",50% type 1/50% type 3,26,36
"25,89,96,100","true,true,true,true","2908.3000000715256,3817.5999999046326,2487.4000000953674,2742.3000000715256",50,"radio,radio,radio,radio",100,12,0,type3,"dish,dish,dish,dish","scissors,pot,oven,fork",50% type 1/50% type 3,66,37
"17,100,100,51","true,true,true,false","4049.2999999523163,3154.399999976158,4139.100000023842,3931.600000023842",50,"pen,pen,pen,pen",100,12,0,type1,"doll,doll,doll,doll","hammer,toy,brush,radio",50% type 1/50% type 3,21,38
"0,91,0,0","true,true,true,true","3605.5999999046326,4653.700000047684,2757.5,2221.899999976158",50,"ship,ship,ship,ship",100,12,0,type1,"wagon,wagon,wagon,wagon","airplane,bike,train,submarine",50% type 1/50% type 3,23,39
"79,79,80,81","true,true,true,true","3256.600000023842,2676.2000000476837,2721.100000023842,2512",50,"squirrel,squirrel,squirrel,squirrel",100,12,0,type3,"allow,allow,allow,allow","exist,find,make,work",50% type 1/50% type 3,43,40
"0,0,0,0","true,true,true,true","3230.7000000476837,2159.5999999046326,2096.4000000953674,2215.5999999046326",50,"bike,bike,bike,bike",100,12,0,type3,"dish,dish,dish,dish","ship,wagon,airplane,train",50% type 1/50% type 3,46,41
"100,100,100,100","true,true,true,true","2461.2999999523163,1671,1812.4000000953674,2440.1999999284744",50,"train,train,train,train",100,12,0,type3,"shirt,shirt,shirt,shirt","belt,necklace,coat,dress",50% type 1/50% type 3,65,42
"79,51,81,64","true,true,true,true","4832.699999928474,4014.3000000715256,5026.899999976158,7809",50,"pot,pot,pot,pot",100,12,0,type1,"dish,dish,dish,dish","knife,oven,fork,scissors",50% type 1/50% type 3,36,43
"30,81,33,100","true,true,true,true","4949.600000023842,5088.099999904633,5478,10261.200000047684",50,"turtle,turtle,turtle,turtle",100,12,0,type3,"bike,bike,bike,bike","submarine,train,ship,wagon",50% type 1/50% type 3,53,44
"0,0,0,0","true,true,true,true","3569.7000000476837,2370.399999976158,2741.899999976158,2158.2000000476837",50,"alligator,alligator,alligator,alligator",100,12,0,type3,"cabinet,cabinet,cabinet,cabinet","lion,fox,mouse,zebra",50% type 1/50% type 3,40,45
"100,100,100,100","true,true,true,true","2437.2999999523163,3777.2000000476837,2026.1000000238419,2105.899999976158",50,"train,train,train,train",100,12,0,type3,"belt,belt,belt,belt","shirt,gloves,coat,necklace",50% type 1/50% type 3,37,46
"100,100,100,100","true,true,true,true","8668.700000047684,1691.5,1721.5,2041.8999999761581",50,"allow,allow,allow,allow",100,12,0,type3,"chair,chair,chair,chair","couch,cushion,desk,cabinet",50% type 1/50% type 3,48,47
"100,100,0,100","true,true,true,true","3387.5,1910.8000000715256,5243.5,6746.299999952316",50,"fox,fox,fox,fox",100,12,0,type1,"dolphin,dolphin,dolphin,dolphin","clam,octopus,snail,turtle",50% type 1/50% type 3,12,48
"28,29,25,24","true,true,true,true","4841.200000047684,3519.399999976158,3948.2999999523163,3597.399999976158",50,"door,door,door,door",100,12,0,type1,"cabinet,cabinet,cabinet,cabinet","couch,cushion,desk,chair",50% type 1/50% type 3,32,49
"50,90,100,0",",true,true,true",",5575.200000047684,5033.399999976158,7093.899999976158",50,"knife,knife,knife,knife",100,12,0,type1,"oven,oven,oven,oven","fork,pot,dish,scissors",50% type 1/50% type 3,8,50
"82,84,81,81","true,true,true,true","4376.299999952316,4769.899999976158,3293.3000000715256,2819.0999999046326",50,"work,work,work,work",100,12,0,type1,"make,make,make,make","allow,use,exist,find",50% type 1/50% type 3,27,51
"0,0,0,0","true,true,true,true","3142.600000023842,2216.899999976158,2254.3000000715256,2412.1999999284744",50,"oven,oven,oven,oven",100,12,0,type3,"shirt,shirt,shirt,shirt","fork,knife,dish,scissors",50% type 1/50% type 3,38,52
"0,0,0,0","true,true,true,true","3329.2000000476837,2472.600000023842,2668.399999976158,2565",50,"zebra,zebra,zebra,zebra",100,12,0,type3,"pen,pen,pen,pen","lion,snail,octopus,turtle",50% type 1/50% type 3,54,53
"100,100,100,100","true,true,true,true","11620.600000023842,1761.2999999523163,1897.8000000715256,3480.100000023842",50,"cushion,cushion,cushion,cushion",100,12,0,type3,"work,work,work,work","make,use,allow,protect",50% type 1/50% type 3,57,54
"0,0,0,0","true,true,true,true","6111.699999928474,4971.5,5927.100000023842,2929.600000023842",50,"fork,fork,fork,fork",100,12,0,type3,"gloves,gloves,gloves,gloves","dish,pot,scissors,knife",50% type 1/50% type 3,45,55
"16,89,0,68","true,true,true,true","5119.399999976158,7862.699999928474,3263.7000000476837,3793.2999999523163",50,"shirt,shirt,shirt,shirt",100,12,0,type1,"necklace,necklace,necklace,necklace","dress,belt,coat,gloves",50% type 1/50% type 3,17,56
"23,20,16,0","true,true,true,true","9107.799999952316,2926.8000000715256,2550.7999999523163,2526.7999999523163",50,"doll,doll,doll,doll",100,12,0,type3,"zebra,zebra,zebra,zebra","pen,radio,toy,hammer",50% type 1/50% type 3,56,57
"72,100,75,100","true,true,true,true","3429.7000000476837,2404.7999999523163,3396.8000000715256,2221.7999999523163",50,"scissors,scissors,scissors,scissors",100,12,0,type1,"dish,dish,dish,dish","fork,oven,knife,pot",50% type 1/50% type 3,29,58
"0,32,0,0","true,true,true,true","3263.7000000476837,3112.5,2457.100000023842,2680.399999976158",50,"dish,dish,dish,dish",100,12,0,type3,"dress,dress,dress,dress","knife,scissors,pot,fork",50% type 1/50% type 3,59,59
"93,100,11,50","true,true,true,false","4208.700000047684,4553.799999952316,4655.100000023842,4123.5",50,"pot,pot,pot,pot",100,12,0,type1,"knife,knife,knife,knife","fork,scissors,oven,dish",50% type 1/50% type 3,22,60
"75,86,5,87","true,true,true,true","4617.899999976158,2572.100000023842,3485.6999999284744,2751.2000000476837",50,"ship,ship,ship,ship",100,12,0,type1,"train,train,train,train","wagon,bike,submarine,airplane",50% type 1/50% type 3,16,61
"78,100,94,84",",true,true,true",",4780,6217.5,4120.699999928474",50,"door,door,door,door",100,12,0,type1,"chair,chair,chair,chair","cabinet,cushion,desk,couch",50% type 1/50% type 3,25,62
"0,87,0,0","true,true,true,true","5249.800000071526,4700.199999928474,2673.3000000715256,4166.299999952316",50,"ship,ship,ship,ship",100,12,0,type1,"wagon,wagon,wagon,wagon","submarine,bike,airplane,train",50% type 1/50% type 3,9,63
"45,65,72,76","false,true,true,true","5199.5,3592.100000023842,2392.5,1972.7999999523163",50,"radio,radio,radio,radio",100,12,0,type1,"pen,pen,pen,pen","brush,hammer,doll,toy",50% type 1/50% type 3,28,64
"0,0,0,0","true,true,true,true","3208.100000023842,2158.899999976158,2226,2438.399999976158",50,"shirt,shirt,shirt,shirt",100,12,0,type3,"dish,dish,dish,dish","belt,gloves,dress,coat",50% type 1/50% type 3,58,65
"100,100,100,100","true,true,true,true","3071.899999976158,1761.6000000238419,1984.1000000238419,2170.1999999284744",50,"dish,dish,dish,dish",100,12,0,type3,"train,train,train,train","submarine,airplane,ship,bike",50% type 1/50% type 3,39,66
