sliders,choices,rt,default,left_words,max,max_duration,min,question_type,right_words,slider_words,triad_mix,trial,trial_num
"30,29,75,34","true,true,true,true","3548.199999988079,3927.800000011921,3340,2550.699999988079",50,"desk,desk,desk,desk",100,12,0,type1,"cushion,cushion,cushion,cushion","cabinet,door,couch,chair",80% type 1/20% type 3,44,3
"30,81,81,26","true,true,true,true","3617.100000023842,2455.300000011921,3800.099999964237,4199.700000047684",50,"belt,belt,belt,belt",100,12,0,type1,"gloves,gloves,gloves,gloves","coat,necklace,shirt,dress",80% type 1/20% type 3,8,4
"94,78,25,12","true,true,true,true","4810.399999976158,5055.5,4304.600000023842,9210.599999964237",50,"make,make,make,make",100,12,0,type1,"work,work,work,work","exist,find,use,allow",80% type 1/20% type 3,12,5
"23,24,23,11","true,true,true,true","3052.099999964237,3851.5,5957.5,4086.199999988079",50,"lion,lion,lion,lion",100,12,0,type3,"exist,exist,exist,exist","octopus,turtle,mouse,alligator",80% type 1/20% type 3,55,6
"100,76,18,82","true,true,true,true","5157.5,6343,5140.800000011921,7135.599999964237",50,"protect,protect,protect,protect",100,12,0,type1,"use,use,use,use","make,work,exist,allow",80% type 1/20% type 3,26,7
"16,81,9,81","true,true,true,true","4017.099999964237,2853.199999988079,3271.2000000476837,4183.899999976158",50,"cabinet,cabinet,cabinet,cabinet",100,12,0,type1,"desk,desk,desk,desk","cushion,door,couch,chair",80% type 1/20% type 3,51,8
"13,19,14,18","true,true,true,true","8001.799999952316,3578,3678,3458.2000000476837",50,"use,use,use,use",100,12,0,type3,"cushion,cushion,cushion,cushion","work,allow,protect,find",80% type 1/20% type 3,57,9
"11,78,83,12","true,true,true,true","7033.699999988079,4087.900000035763,5594.699999988079,3729.800000011921",50,"hammer,hammer,hammer,hammer",100,12,0,type1,"pen,pen,pen,pen","brush,toy,radio,doll",80% type 1/20% type 3,27,10
"16,17,17,18","true,true,true,true","5923.5,3843.699999988079,5818.5,7476.199999988079",50,"dress,dress,dress,dress",100,12,0,type1,"necklace,necklace,necklace,necklace","gloves,belt,coat,shirt",80% type 1/20% type 3,36,11
"3,100,87,17","true,true,true,true","3201.400000035763,3538.800000011921,3270.899999976158,4268.199999988079",50,"pot,pot,pot,pot",100,12,0,type1,"knife,knife,knife,knife","oven,fork,scissors,dish",80% type 1/20% type 3,38,12
0,true,4297,50,left,100,12,0,catch,right,move this slider to the left,80% type 1/20% type 3,3,13
"14,15,11,90","true,true,true,true","3143.300000011921,3314.100000023842,3431.899999976158,5377.800000011921",50,"brush,brush,brush,brush",100,12,0,type1,"radio,radio,radio,radio","doll,hammer,toy,pen",80% type 1/20% type 3,13,14
"100,100,9,91","true,true,true,true","4305.300000011921,3433.099999964237,4191.300000011921,3026.699999988079",50,"scissors,scissors,scissors,scissors",100,12,0,type1,"pot,pot,pot,pot","dish,fork,knife,oven",80% type 1/20% type 3,45,15
"93,10,14,13","true,true,true,true","5557.800000011921,5963.699999988079,3899.5,5719.300000011921",50,"chair,chair,chair,chair",100,12,0,type3,"dish,dish,dish,dish","knife,fork,oven,scissors",80% type 1/20% type 3,65,16
"19,97,50,100","true,true,,true","8929.800000011921,3594.300000011921,,6860.199999988079",50,"wagon,wagon,wagon,wagon",100,12,0,type1,"airplane,airplane,airplane,airplane","submarine,train,bike,ship",80% type 1/20% type 3,42,17
"22,30,9,90","false,false,false,false","6866.700000047684,3097.399999976158,5197.800000011921,4190.199999988079",50,"necklace,necklace,necklace,necklace",100,12,0,type1,"belt,belt,belt,belt","shirt,gloves,dress,coat",80% type 1/20% type 3,15,18
"15,100,8,28","true,true,true,true","3667.400000035763,3641.800000011921,3698.5,2826.7999999523163",50,"cabinet,cabinet,cabinet,cabinet",100,12,0,type1,"cushion,cushion,cushion,cushion","chair,couch,desk,door",80% type 1/20% type 3,23,19
"100,100,100,100","true,true,true,true","2803,3190,2697.399999976158,2905.100000023842",50,"shirt,shirt,shirt,shirt",100,12,0,type3,"ship,ship,ship,ship","train,wagon,bike,airplane",80% type 1/20% type 3,56,20
"92,6,100,100","true,true,true,true","3271.7999999523163,3651,3603.800000011921,3677.100000023842",50,"elephant,elephant,elephant,elephant",100,12,0,type1,"zebra,zebra,zebra,zebra","snail,alligator,buffalo,lion",80% type 1/20% type 3,53,21
"21,95,79,0","true,true,true,true","5003.599999964237,2435.600000023842,2800.300000011921,3036.599999964237",50,"work,work,work,work",100,12,0,type1,"allow,allow,allow,allow","find,make,exist,protect",80% type 1/20% type 3,40,22
"100,17,6,100","true,true,true,true","5513.800000011921,5001.800000011921,3436.600000023842,4221.399999976158",50,"make,make,make,make",100,12,0,type1,"protect,protect,protect,protect","find,exist,allow,work",80% type 1/20% type 3,33,23
"18,96,0,100","true,true,true,true","3652.100000023842,2428.2999999523163,2675.2000000476837,5163.599999964237",50,"coat,coat,coat,coat",100,12,0,type1,"belt,belt,belt,belt","gloves,shirt,dress,necklace",80% type 1/20% type 3,22,24
"100,3,100,100","true,true,true,true","2511,2332.5,2570.5,1938.300000011921",50,"find,find,find,find",100,12,0,type1,"work,work,work,work","allow,use,exist,protect",80% type 1/20% type 3,19,25
"100,100,92,13","true,true,true,true","2046.5,2248.800000011921,3002.199999988079,3853.399999976158",50,"brush,brush,brush,brush",100,12,0,type1,"radio,radio,radio,radio","pen,hammer,toy,doll",80% type 1/20% type 3,48,26
"50,31,22,33",",true,true,true",",4503,6904.399999976158,3003.900000035763",50,"work,work,work,work",100,12,0,type1,"use,use,use,use","exist,make,find,allow",80% type 1/20% type 3,54,27
"3,19,17,17","true,true,true,true","4825.699999988079,2960.7000000476837,2804.699999988079,5284.800000011921",50,"buffalo,buffalo,buffalo,buffalo",100,12,0,type1,"snail,snail,snail,snail","squirrel,fox,elephant,mouse",80% type 1/20% type 3,18,28
0,true,3881.199999988079,50,left,100,12,0,catch,right,move this slider to the left,80% type 1/20% type 3,5,29
"17,25,100,18","true,true,true,true","2329.199999988079,2561.699999988079,2563.199999988079,3192.600000023842",50,"exist,exist,exist,exist",100,12,0,type1,"find,find,find,find","allow,use,work,make",80% type 1/20% type 3,47,30
"78,84,0,51","true,true,true,false","3706.099999964237,2223.699999988079,2413.600000023842,2980",50,"buffalo,buffalo,buffalo,buffalo",100,12,0,type1,"dolphin,dolphin,dolphin,dolphin","elephant,alligator,squirrel,mouse",80% type 1/20% type 3,25,31
100,true,3639.5,50,left,100,12,0,catch,right,move this slider to the right,80% type 1/20% type 3,6,32
"81,100,67,0","true,true,true,true","2486.2999999523163,2255.2000000476837,3855.199999988079,4183.099999964237",50,"toy,toy,toy,toy",100,12,0,type3,"cushion,cushion,cushion,cushion","chair,couch,door,cabinet",80% type 1/20% type 3,59,33
"0,26,7,15","true,true,true,true","3601,3575,4077.800000011921,2786.900000035763",50,"cabinet,cabinet,cabinet,cabinet",100,12,0,type3,"pot,pot,pot,pot","door,couch,cushion,chair",80% type 1/20% type 3,66,34
"50,50,0,1",",,true,true",",12135.100000023842,4113.200000047684,2289.199999988079",50,"submarine,submarine,submarine,submarine",100,12,0,type1,"bike,bike,bike,bike","train,airplane,ship,wagon",80% type 1/20% type 3,49,35
"8,100,97,0","true,true,true,true","2625.5,2160.800000011921,1709.699999988079,2192.800000011921",50,"necklace,necklace,necklace,necklace",100,12,0,type1,"belt,belt,belt,belt","gloves,coat,shirt,dress",80% type 1/20% type 3,29,36
"100,100,82,81","true,true,true,true","2980.800000011921,5546.299999952316,4089.2000000476837,2971",50,"wagon,wagon,wagon,wagon",100,12,0,type1,"ship,ship,ship,ship","airplane,bike,submarine,train",80% type 1/20% type 3,14,37
"85,0,17,34","true,true,true,true","2637.099999964237,4282.700000047684,3283.5,4195.099999964237",50,"buffalo,buffalo,buffalo,buffalo",100,12,0,type1,"octopus,octopus,octopus,octopus","mouse,squirrel,elephant,turtle",80% type 1/20% type 3,39,38
"77,96,14,72","true,true,true,true","2266.699999988079,2583.100000023842,3374.899999976158,2652.400000035763",50,"dolphin,dolphin,dolphin,dolphin",100,12,0,type1,"mouse,mouse,mouse,mouse","turtle,squirrel,zebra,buffalo",80% type 1/20% type 3,46,39
"84,15,91,87","true,true,true,true","2277,3358.199999988079,2277.199999988079,2240.400000035763",50,"desk,desk,desk,desk",100,12,0,type1,"cushion,cushion,cushion,cushion","couch,door,chair,cabinet",80% type 1/20% type 3,9,40
"95,61,90,100","true,true,true,true","3882,3437.100000023842,6033,3811.699999988079",50,"door,door,door,door",100,12,0,type1,"chair,chair,chair,chair","couch,cushion,cabinet,desk",80% type 1/20% type 3,37,41
"100,58,24,0","true,true,true,true","2392.099999964237,4500.100000023842,4691.5,2814.099999964237",50,"coat,coat,coat,coat",100,12,0,type1,"necklace,necklace,necklace,necklace","belt,shirt,gloves,dress",80% type 1/20% type 3,50,42
"0,22,0,15","true,true,true,true","2832.2000000476837,4800.299999952316,3486.600000023842,5906.100000023842",50,"toy,toy,toy,toy",100,12,0,type1,"doll,doll,doll,doll","radio,brush,pen,hammer",80% type 1/20% type 3,34,43
"18,27,90,17","true,true,true,true","3385.5,3032.5,3106.900000035763,3931",50,"desk,desk,desk,desk",100,12,0,type1,"couch,couch,couch,couch","chair,cabinet,cushion,door",80% type 1/20% type 3,30,44
"18,18,24,0","true,true,true,true","5691.199999988079,3065.300000011921,5449.400000035763,3983.699999988079",50,"mouse,mouse,mouse,mouse",100,12,0,type3,"make,make,make,make","buffalo,octopus,elephant,zebra",80% type 1/20% type 3,62,45
"24,15,89,96","true,true,true,true","3742.399999976158,4336.899999976158,2655.300000011921,3846.100000023842",50,"hammer,hammer,hammer,hammer",100,12,0,type1,"brush,brush,brush,brush","toy,doll,radio,pen",80% type 1/20% type 3,20,46
"100,88,90,100","true,true,true,true","2934.300000011921,2202.100000023842,2416.199999988079,4294.099999964237",50,"find,find,find,find",100,12,0,type3,"airplane,airplane,airplane,airplane","wagon,bike,train,submarine",80% type 1/20% type 3,63,47
"16,21,80,3","true,true,true,true","3204.899999976158,5254.900000035763,4518.799999952316,3273.900000035763",50,"couch,couch,couch,couch",100,12,0,type1,"cushion,cushion,cushion,cushion","desk,chair,cabinet,door",80% type 1/20% type 3,16,48
"83,0,3,95","true,true,true,true","3053.300000011921,4994.100000023842,2943.399999976158,2450.5",50,"ship,ship,ship,ship",100,12,0,type1,"airplane,airplane,airplane,airplane","bike,train,submarine,wagon",80% type 1/20% type 3,21,49
"13,95,100,0","true,true,true,true","3031,5771.099999964237,4342.5,2888.100000023842",50,"dress,dress,dress,dress",100,12,0,type1,"necklace,necklace,necklace,necklace","shirt,gloves,belt,coat",80% type 1/20% type 3,43,50
"1,2,4,0","true,true,true,true","5054.800000011921,3188.399999976158,3659.900000035763,4861.299999952316",50,"fork,fork,fork,fork",100,12,0,type1,"knife,knife,knife,knife","dish,scissors,oven,pot",80% type 1/20% type 3,17,51
"94,0,2,7","true,true,true,true","6401.800000011921,3333.600000023842,10617,7600.599999964237",50,"brush,brush,brush,brush",100,12,0,type1,"doll,doll,doll,doll","radio,hammer,toy,pen",80% type 1/20% type 3,41,52
"85,81,98,3","true,true,true,true","7487.100000023842,3926.7999999523163,5835.700000047684,3504.099999964237",50,"scissors,scissors,scissors,scissors",100,12,0,type1,"knife,knife,knife,knife","dish,oven,fork,pot",80% type 1/20% type 3,52,53
"0,0,89,2","true,true,true,true","10237,3701.600000023842,3354.699999988079,4166.199999988079",50,"airplane,airplane,airplane,airplane",100,12,0,type1,"wagon,wagon,wagon,wagon","bike,ship,train,submarine",80% type 1/20% type 3,28,54
"92,98,100,94","true,true,true,true","2556.800000011921,2676.199999988079,3051.400000035763,3500.399999976158",50,"allow,allow,allow,allow",100,12,0,type3,"pen,pen,pen,pen","work,use,protect,exist",80% type 1/20% type 3,64,55
"0,21,92,9","true,true,true,true","3250.899999976158,2921.699999988079,2781.100000023842,4562.699999988079",50,"alligator,alligator,alligator,alligator",100,12,0,type1,"snail,snail,snail,snail","dolphin,elephant,fox,buffalo",80% type 1/20% type 3,32,56
"14,95,100,0","true,true,true,true","2923.099999964237,2418.300000011921,2627.699999988079,2728.800000011921",50,"pot,pot,pot,pot",100,12,0,type1,"knife,knife,knife,knife","oven,scissors,fork,dish",80% type 1/20% type 3,24,57
"0,2,4,91","true,true,true,true","2942.399999976158,2807.7000000476837,2514.7999999523163,2653.900000035763",50,"fork,fork,fork,fork",100,12,0,type1,"oven,oven,oven,oven","knife,dish,scissors,pot",80% type 1/20% type 3,31,58
"99,98,95,98","true,true,true,true","3418,3549.099999964237,2610.900000035763,2829.199999988079",50,"make,make,make,make",100,12,0,type3,"oven,oven,oven,oven","scissors,fork,pot,dish",80% type 1/20% type 3,58,59
"99,100,1,3","true,true,true,true","2806.699999988079,2466.899999976158,3230.599999964237,5992.5",50,"buffalo,buffalo,buffalo,buffalo",100,12,0,type1,"turtle,turtle,turtle,turtle","snail,dolphin,lion,zebra",80% type 1/20% type 3,11,60
"18,87,76,99","true,true,true,true","3060.800000011921,9574.099999964237,3836.900000035763,2681.399999976158",50,"dish,dish,dish,dish",100,12,0,type3,"toy,toy,toy,toy","brush,hammer,radio,doll",80% type 1/20% type 3,60,61
"97,11,83,83","true,true,true,true","3871.099999964237,2634.100000023842,2292.5,2611",50,"oven,oven,oven,oven",100,12,0,type1,"knife,knife,knife,knife","pot,fork,dish,scissors",80% type 1/20% type 3,10,62
"91,98,14,100","true,true,true,true","1967.6000000238419,4423.5,3229.699999988079,3259.599999964237",50,"wagon,wagon,wagon,wagon",100,12,0,type1,"airplane,airplane,airplane,airplane","submarine,bike,train,ship",80% type 1/20% type 3,35,63
"100,88,100,98","true,true,true,true","3008.399999976158,2693.300000011921,2807.399999976158,2843.900000035763",50,"octopus,octopus,octopus,octopus",100,12,0,type3,"coat,coat,coat,coat","gloves,belt,dress,shirt",80% type 1/20% type 3,61,64
"100,1,16,100","true,true,true,true","11018.699999988079,3649.599999964237,3898.900000035763,2282.899999976158",50,"submarine,submarine,submarine,submarine",100,12,0,type1,"bike,bike,bike,bike","train,ship,airplane,wagon",80% type 1/20% type 3,7,65
100,true,2785.800000011921,50,left,100,12,0,catch,right,move this slider to the right,80% type 1/20% type 3,4,66
