sliders,choices,rt,default,left_words,max,max_duration,min,question_type,right_words,slider_words,triad_mix,trial,trial_num
"10,22,100,20","true,true,true,true","6184.600000000093,4468,2865.399999999907,3913.899999999907",50,"cabinet,cabinet,cabinet,cabinet",100,12,0,random,"zebra,zebra,zebra,zebra","wagon,gloves,lion,find",random,45,3
"25,99,8,84","true,true,true,true","3952,3291.4000000003725,3663.5999999996275,3696.5",50,"gloves,gloves,gloves,gloves",100,12,0,random,"turtle,turtle,turtle,turtle","radio,submarine,hammer,mouse",random,9,4
0,true,3063.100000000093,50,left,100,12,0,catch,right,move this slider to the left,random,3,5
"4,0,0,84","true,true,true,true","3336.3000000002794,3081.600000000093,2703.399999999907,3629.899999999907",50,"desk,desk,desk,desk",100,12,0,random,"necklace,necklace,necklace,necklace","cushion,hammer,cabinet,turtle",random,65,6
"0,5,100,100","true,true,true,true","3501.6999999997206,3297.600000000093,2052.2000000001863,3459.0999999996275",50,"octopus,octopus,octopus,octopus",100,12,0,random,"desk,desk,desk,desk","clam,zebra,cushion,hammer",random,63,7
"85,87,50,50","true,true,true,true","4188.0999999996275,4805.9000000003725,3941.0999999996275,3481.5",50,"dress,dress,dress,dress",100,12,0,random,"bike,bike,bike,bike","toy,airplane,couch,elephant",random,20,8
"6,66,35,72","true,true,true,true","5066.200000000186,3894.6999999997206,3733.399999999907,2939.399999999907",50,"fork,fork,fork,fork",100,12,0,random,"doll,doll,doll,doll","scissors,dolphin,use,find",random,15,9
"50,50,48,100","true,true,true,true","3896.899999999907,2746.600000000093,5539.9000000003725,2695.7999999998137",50,"door,door,door,door",100,12,0,random,"work,work,work,work","make,alligator,airplane,gloves",random,46,10
"56,73,50,50","true,true,true,true","5029.100000000093,3516.2999999998137,3040.2000000001863,2148.6999999997206",50,"door,door,door,door",100,12,0,random,"dish,dish,dish,dish","brush,knife,fox,octopus",random,28,11
"100,55,66,0","true,true,true,true","3613.899999999907,3599.3000000002794,4133.399999999907,2976.2999999998137",50,"oven,oven,oven,oven",100,12,0,random,"coat,coat,coat,coat","shirt,make,ship,door",random,27,12
"100,74,50,57","true,true,true,true","2940.2999999998137,4741.700000000186,3194.6999999997206,2995.2000000001863",50,"doll,doll,doll,doll",100,12,0,random,"work,work,work,work","hammer,fork,couch,pot",random,47,13
"96,100,0,50","true,true,true,true","3027.3000000002794,2648.100000000093,3179.7999999998137,2206",50,"fox,fox,fox,fox",100,12,0,random,"work,work,work,work","find,airplane,elephant,dish",random,42,14
"80,50,100,16","true,true,true,true","3825.2000000001863,2530.2000000001863,2661.7999999998137,5089.5999999996275",50,"elephant,elephant,elephant,elephant",100,12,0,random,"pen,pen,pen,pen","door,oven,use,necklace",random,58,15
"15,15,5,50","true,true,true,true","5216.399999999441,3853.9000000003725,6204.700000000186,4712.799999999814",50,"toy,toy,toy,toy",100,12,0,random,"find,find,find,find","lion,couch,exist,belt",random,60,16
"50,50,22,74","true,true,true,true","2875.9000000003725,2745.899999999441,3844.100000000559,3129.2999999998137",50,"wagon,wagon,wagon,wagon",100,12,0,random,"submarine,submarine,submarine,submarine","belt,use,bike,protect",random,51,17
"50,50,74,50","true,true,true,true","4127.4000000003725,3074.2999999998137,3844.7000000001863,1832.5",50,"couch,couch,couch,couch",100,12,0,random,"dress,dress,dress,dress","squirrel,bike,scissors,lion",random,24,18
"5,8,10,9","true,true,true,true","4998.300000000745,5293.5,3390.5999999996275,3064.9000000003725",50,"protect,protect,protect,protect",100,12,0,random,"scissors,scissors,scissors,scissors","alligator,door,submarine,wagon",random,25,19
"18,50,94,100","true,true,true,true","4566,3671.600000000559,3752.2999999998137,3970",50,"turtle,turtle,turtle,turtle",100,12,0,random,"cushion,cushion,cushion,cushion","brush,oven,desk,couch",random,62,20
"17,16,50,50","true,true,true,true","3455.100000000559,6583.700000000186,3649.899999999441,3864.2000000001863",50,"exist,exist,exist,exist",100,12,0,random,"protect,protect,protect,protect","snail,buffalo,pot,doll",random,17,21
"82,87,83,50","true,true,true,true","4243,2577.5,2234.5999999996275,2743.4000000003725",50,"protect,protect,protect,protect",100,12,0,random,"octopus,octopus,octopus,octopus","alligator,turtle,fox,pen",random,35,22
"14,25,50,50","true,true,true,true","3491.600000000559,5238.199999999255,2008.2000000001863,1659.7999999998137",50,"cabinet,cabinet,cabinet,cabinet",100,12,0,random,"desk,desk,desk,desk","find,door,protect,dolphin",random,40,23
"22,17,42,50","true,true,true,true","4978.5,4771.5999999996275,2928.9000000003725,1838.5999999996275",50,"work,work,work,work",100,12,0,random,"chair,chair,chair,chair","pot,submarine,dish,snail",random,36,24
"50,50,50,0","true,true,true,true","3319.5,1878.1000000005588,1724.3999999994412,5637.300000000745",50,"couch,couch,couch,couch",100,12,0,random,"door,door,door,door","clam,zebra,mouse,chair",random,59,25
"50,93,1,50","true,true,true,true","4123,3049.199999999255,4718.200000000186,2144.7999999998137",50,"octopus,octopus,octopus,octopus",100,12,0,random,"protect,protect,protect,protect","dish,belt,lion,radio",random,16,26
100,true,4268.5999999996275,50,left,100,12,0,catch,right,move this slider to the right,random,4,27
"73,0,50,0","true,true,true,true","3247.5,3537.5,2513.5999999996275,2982.9000000003725",50,"fox,fox,fox,fox",100,12,0,random,"protect,protect,protect,protect","exist,zebra,bike,buffalo",random,11,28
"0,100,0,52","true,true,true,true","3248.5999999996275,3509.5,3005.9000000003725,5010.299999999814",50,"use,use,use,use",100,12,0,random,"turtle,turtle,turtle,turtle","train,fox,shirt,brush",random,12,29
"70,50,50,50","true,true,true,true","4214.799999999814,1993.2000000001863,1572.8999999994412,1800.7000000001863",50,"squirrel,squirrel,squirrel,squirrel",100,12,0,random,"elephant,elephant,elephant,elephant","brush,oven,dish,train",random,38,30
"50,50,20,50","true,true,true,true","4120.700000000186,3623,3616.5,4197.699999999255",50,"fork,fork,fork,fork",100,12,0,random,"scissors,scissors,scissors,scissors","brush,make,pot,cabinet",random,37,31
"50,67,0,50","true,true,true,true","3813.100000000559,3910.399999999441,3327,2870.5",50,"fox,fox,fox,fox",100,12,0,random,"belt,belt,belt,belt","oven,airplane,mouse,submarine",random,33,32
"65,93,30,50","true,true,true,true","4282.699999999255,3139.9000000003725,4480.5,4604.700000000186",50,"mouse,mouse,mouse,mouse",100,12,0,random,"turtle,turtle,turtle,turtle","elephant,clam,lion,train",random,64,33
"50,50,50,50","true,true,true,true","2360.5999999996275,1776.1000000005588,1546.2000000001863,1595.8999999994412",50,"elephant,elephant,elephant,elephant",100,12,0,random,"lion,lion,lion,lion","belt,protect,toy,knife",random,41,34
"100,50,100,50","true,true,true,true","2986,2197.9000000003725,2015.7999999998137,2529",50,"coat,coat,coat,coat",100,12,0,random,"fox,fox,fox,fox","zebra,scissors,elephant,door",random,26,35
"100,50,100,14","true,true,true,true","3549.7999999998137,3483,2785.7999999998137,3381.5999999996275",50,"necklace,necklace,necklace,necklace",100,12,0,random,"use,use,use,use","brush,ship,belt,clam",random,18,36
"50,72,50,70","true,true,true,true","3233.300000000745,3904.899999999441,1956.4000000003725,4864.299999999814",50,"necklace,necklace,necklace,necklace",100,12,0,random,"fork,fork,fork,fork","buffalo,protect,train,chair",random,55,37
"69,69,71,72","true,true,true,true","3707.5999999996275,3180.2999999998137,4010.100000000559,2515.5",50,"knife,knife,knife,knife",100,12,0,random,"toy,toy,toy,toy","couch,shirt,mouse,cushion",random,44,38
"0,50,98,100","true,true,true,true","4110.5999999996275,3686.9000000003725,2557.7000000001863,1980.7000000001863",50,"belt,belt,belt,belt",100,12,0,random,"zebra,zebra,zebra,zebra","shirt,oven,lion,turtle",random,22,39
"70,50,31,37","true,true,true,true","3969.7999999998137,2365.9000000003725,3218.899999999441,2748.100000000559",50,"gloves,gloves,gloves,gloves",100,12,0,random,"pot,pot,pot,pot","couch,buffalo,scissors,dress",random,31,40
"50,50,64,71","true,true,true,true","2634.5,1747.5,3348.2000000001863,3586.5999999996275",50,"pot,pot,pot,pot",100,12,0,random,"wagon,wagon,wagon,wagon","allow,necklace,turtle,door",random,29,41
"50,84,73,50","true,true,true,true","3695.9000000003725,2604.399999999441,2146,2224.9000000003725",50,"radio,radio,radio,radio",100,12,0,random,"make,make,make,make","pen,cabinet,doll,shirt",random,8,42
"34,89,50,50","true,true,true,true","3183.2999999998137,2907.600000000559,1598.5999999996275,1467.2000000001863",50,"mouse,mouse,mouse,mouse",100,12,0,random,"toy,toy,toy,toy","protect,make,dish,oven",random,43,43
"100,51,8,6","true,true,true,true","2737.2000000001863,5035.299999999814,4467.200000000186,2338.4000000003725",50,"zebra,zebra,zebra,zebra",100,12,0,random,"use,use,use,use","pen,find,elephant,mouse",random,30,44
"74,97,89,91","true,true,true,true","3953.7999999998137,2162.2999999998137,1967.5,2236.0999999996275",50,"shirt,shirt,shirt,shirt",100,12,0,random,"lion,lion,lion,lion","protect,turtle,clam,elephant",random,61,45
"50,86,32,50","true,true,true,false","3409.600000000559,3833.2999999998137,3003.2000000001863,3468.4000000003725",50,"fox,fox,fox,fox",100,12,0,random,"elephant,elephant,elephant,elephant","brush,buffalo,toy,necklace",random,57,46
"69,50,50,97","true,true,true,true","5056.200000000186,2880.2999999998137,3295.2000000001863,3129.2999999998137",50,"dish,dish,dish,dish",100,12,0,random,"train,train,train,train","radio,dress,work,submarine",random,66,47
"75,37,69,34","true,true,true,true","4184.600000000559,3296.0999999996275,3108.0999999996275,2836.9000000003725",50,"exist,exist,exist,exist",100,12,0,random,"clam,clam,clam,clam","zebra,pot,elephant,pen",random,50,48
"84,32,59,50","true,true,true,true","2745.7000000001863,2633.4000000003725,4584.299999999814,2079.5999999996275",50,"exist,exist,exist,exist",100,12,0,random,"octopus,octopus,octopus,octopus","zebra,shirt,dish,bike",random,52,49
"85,16,76,79","true,true,true,true","2699.7999999998137,4012.600000000559,2144.399999999441,2123.300000000745",50,"chair,chair,chair,chair",100,12,0,random,"snail,snail,snail,snail","clam,bike,mouse,octopus",random,23,50
0,true,3195.7999999998137,50,left,100,12,0,catch,right,move this slider to the left,random,5,51
"50,71,9,74","true,true,true,true","2731.5,3241.600000000559,2582.5999999996275,2812.5999999996275",50,"buffalo,buffalo,buffalo,buffalo",100,12,0,random,"door,door,door,door","fork,allow,lion,chair",random,49,52
"20,77,19,26","true,true,true,true","3249.2000000001863,3681,3513.2999999998137,3117.2999999998137",50,"belt,belt,belt,belt",100,12,0,random,"dolphin,dolphin,dolphin,dolphin","make,submarine,fork,shirt",random,56,53
"74,63,58,58","true,true,true,true","3342.7999999998137,3918.2999999998137,4971.5999999996275,4299.600000000559",50,"doll,doll,doll,doll",100,12,0,random,"couch,couch,couch,couch","cabinet,airplane,knife,train",random,13,54
"50,85,50,60","true,true,true,true","2389.7999999998137,3472.100000000559,2298.7000000001863,3776.199999999255",50,"fox,fox,fox,fox",100,12,0,random,"turtle,turtle,turtle,turtle","find,alligator,belt,gloves",random,32,55
"68,50,70,50","true,true,true,true","3995.800000000745,2334.5999999996275,3194.2999999998137,2281",50,"buffalo,buffalo,buffalo,buffalo",100,12,0,random,"alligator,alligator,alligator,alligator","snail,shirt,belt,work",random,21,56
"59,77,0,50","true,true,true,true","4429.799999999814,1968.9000000003725,3077.7999999998137,2258",50,"train,train,train,train",100,12,0,random,"protect,protect,protect,protect","clam,turtle,submarine,brush",random,19,57
"67,68,18,50","true,true,true,true","3926.4000000003725,2758.9000000003725,6183.899999999441,2096.2999999998137",50,"fork,fork,fork,fork",100,12,0,random,"necklace,necklace,necklace,necklace","chair,pen,door,buffalo",random,54,58
"50,28,50,0","true,true,true,true","2565.7999999998137,3052,2185.600000000559,3769.199999999255",50,"pen,pen,pen,pen",100,12,0,random,"cushion,cushion,cushion,cushion","dolphin,necklace,submarine,work",random,10,59
"56,86,37,82","true,true,true,true","5248.100000000559,6792.5,3855.7999999998137,4317.600000000559",50,"fork,fork,fork,fork",100,12,0,random,"work,work,work,work","cabinet,wagon,necklace,shirt",random,7,60
"13,35,75,50","true,true,true,true","3936.800000000745,4153.399999999441,2402,2487.9000000003725",50,"scissors,scissors,scissors,scissors",100,12,0,random,"submarine,submarine,submarine,submarine","allow,use,protect,cushion",random,53,61
"86,42,63,50","true,true,true,false","2617.899999999441,3501.5,2909,3350.100000000559",50,"zebra,zebra,zebra,zebra",100,12,0,random,"hammer,hammer,hammer,hammer","make,coat,find,necklace",random,14,62
"50,0,22,50","false,true,true,true","3637.199999999255,7290.600000000559,2821.899999999441,2428",50,"hammer,hammer,hammer,hammer",100,12,0,random,"dress,dress,dress,dress","airplane,work,knife,exist",random,34,63
"38,89,28,50","true,true,true,false","3317.100000000559,3000.5999999996275,4162.199999999255,2452.800000000745",50,"exist,exist,exist,exist",100,12,0,random,"bike,bike,bike,bike","radio,chair,dress,dolphin",random,48,64
100,true,2889.399999999441,50,left,100,12,0,catch,right,move this slider to the right,random,6,65
"32,29,80,32","true,true,true,true","3435.7000000001863,2543.2000000001863,2493,2579.699999999255",50,"make,make,make,make",100,12,0,random,"exist,exist,exist,exist","dish,necklace,clam,belt",random,39,66
