sliders,choices,rt,default,left_words,max,max_duration,min,question_type,right_words,slider_words,triad_mix,trial,trial_num
"73,50,59,98","true,false,true,true","2953.2000000029802,3141.0999999940395,3370,5310.100000008941",50,"necklace,necklace,necklace,necklace",100,12,0,type1,"gloves,gloves,gloves,gloves","shirt,belt,dress,coat",80% type 1/20% type 3,12,3
"52,50,32,50","true,true,true,true","3229.2000000029802,1783.7999999970198,3378.0999999940395,2087",50,"mouse,mouse,mouse,mouse",100,12,0,type1,"fox,fox,fox,fox","alligator,dolphin,lion,turtle",80% type 1/20% type 3,20,4
"51,100,14,19","true,true,true,true","4391.29999999702,3064.1000000089407,2914,2755.199999988079",50,"dish,dish,dish,dish",100,12,0,type1,"fork,fork,fork,fork","scissors,knife,oven,pot",80% type 1/20% type 3,53,5
"50,50,50,50","true,true,true,true","3181.5999999940395,1563.2999999970198,1603.2000000029802,1436.9000000059605",50,"fork,fork,fork,fork",100,12,0,type1,"knife,knife,knife,knife","oven,pot,dish,scissors",80% type 1/20% type 3,11,6
"68,68,81,85","true,true,true,true","3981.2000000029802,3723.9000000059605,2355.5999999940395,1750.7000000029802",50,"coat,coat,coat,coat",100,12,0,type3,"wagon,wagon,wagon,wagon","train,airplane,ship,submarine",80% type 1/20% type 3,55,7
"33,23,50,50","true,true,true,true","3066.7000000029802,2229.7000000029802,2426,1767.2000000029802",50,"dress,dress,dress,dress",100,12,0,type1,"necklace,necklace,necklace,necklace","coat,shirt,belt,gloves",80% type 1/20% type 3,47,8
"0,50,50,50","true,false,false,true","3196.4000000059605,2892.2000000029802,1231.2999999970198,1633.2000000029802",50,"doll,doll,doll,doll",100,12,0,type1,"hammer,hammer,hammer,hammer","toy,pen,radio,brush",80% type 1/20% type 3,21,9
"66,84,85,100","true,true,true,true","5033.5,3025,1877.7000000029802,2849.7000000029802",50,"submarine,submarine,submarine,submarine",100,12,0,type3,"snail,snail,snail,snail","lion,zebra,octopus,clam",80% type 1/20% type 3,57,10
"21,19,17,0","true,false,true,true","3432.1000000089407,2363.2999999970198,2788.7000000029802,2976.8999999910593",50,"fork,fork,fork,fork",100,12,0,type1,"scissors,scissors,scissors,scissors","dish,oven,pot,knife",80% type 1/20% type 3,39,11
100,true,2804.0999999940395,50,left,100,12,0,catch,right,move this slider to the right,80% type 1/20% type 3,6,12
"16,24,14,96","true,true,true,true","4369.300000011921,2710,2095,2326.0999999940395",50,"airplane,airplane,airplane,airplane",100,12,0,type1,"wagon,wagon,wagon,wagon","ship,submarine,train,bike",80% type 1/20% type 3,31,13
"50,99,100,0","true,true,true,true","2763.7999999970198,3126.1000000089407,1901.199999988079,2582.9000000059605",50,"belt,belt,belt,belt",100,12,0,type1,"shirt,shirt,shirt,shirt","gloves,coat,dress,necklace",80% type 1/20% type 3,33,14
"11,97,15,12","true,true,true,true","2779.5,3330.2000000029802,2403.9000000059605,2181.0999999940395",50,"airplane,airplane,airplane,airplane",100,12,0,type1,"bike,bike,bike,bike","submarine,wagon,ship,train",80% type 1/20% type 3,24,15
0,true,5851.399999991059,50,left,100,12,0,catch,right,move this slider to the left,80% type 1/20% type 3,3,16
"68,100,94,78","false,true,true,true","4246.5,3423.5,1870.2999999970198,3516.5999999940395",50,"shirt,shirt,shirt,shirt",100,12,0,type3,"chair,chair,chair,chair","cabinet,couch,desk,door",80% type 1/20% type 3,66,17
"79,8,97,97","true,true,true,true","2730,4149.5999999940395,3077.5,1781.2999999970198",50,"bike,bike,bike,bike",100,12,0,type1,"airplane,airplane,airplane,airplane","train,wagon,ship,submarine",80% type 1/20% type 3,52,18
"29,95,50,50","true,true,false,false","3807.7999999970198,3307.0999999940395,2152.2999999970198,1372.5",50,"use,use,use,use",100,12,0,type1,"find,find,find,find","allow,work,exist,make",80% type 1/20% type 3,23,19
"23,50,19,50","true,false,true,false","6073.0999999940395,2866.4000000059605,2929.9000000059605,2276.8999999910593",50,"cabinet,cabinet,cabinet,cabinet",100,12,0,type1,"door,door,door,door","couch,cushion,desk,chair",80% type 1/20% type 3,22,20
"86,78,12,94","true,true,true,true","8328.79999999702,4451.9000000059605,2742,3994.5999999940395",50,"cushion,cushion,cushion,cushion",100,12,0,type1,"cabinet,cabinet,cabinet,cabinet","desk,chair,couch,door",80% type 1/20% type 3,15,21
"20,26,50,50","true,true,false,true","3683.9000000059605,1807.0999999940395,1029,903.5",50,"find,find,find,find",100,12,0,type1,"protect,protect,protect,protect","work,use,allow,exist",80% type 1/20% type 3,37,22
"50,31,22,94","true,true,true,true","1359.5,2560.1000000089407,1993,3423.3999999910593",50,"make,make,make,make",100,12,0,type1,"allow,allow,allow,allow","use,find,protect,exist",80% type 1/20% type 3,51,23
"0,30,0,0","true,true,true,true","2395.7999999970198,3330.1000000089407,2560,2191.0999999940395",50,"dress,dress,dress,dress",100,12,0,type1,"shirt,shirt,shirt,shirt","coat,belt,necklace,gloves",80% type 1/20% type 3,26,24
"10,93,100,15","true,true,true,true","3441,4239.79999999702,2176.4000000059605,3014.2999999970198",50,"desk,desk,desk,desk",100,12,0,type3,"exist,exist,exist,exist","use,find,protect,make",80% type 1/20% type 3,60,25
"98,9,50,10","true,true,false,true","4688,2513.1000000089407,2781.5,2590.0999999940395",50,"cushion,cushion,cushion,cushion",100,12,0,type1,"couch,couch,couch,couch","chair,door,cabinet,desk",80% type 1/20% type 3,43,26
100,true,2239.5999999940395,50,left,100,12,0,catch,right,move this slider to the right,80% type 1/20% type 3,4,27
"7,89,2,100","true,true,true,true","2966.0999999940395,2582.2000000029802,3023.7000000029802,2559.2999999970198",50,"pot,pot,pot,pot",100,12,0,type1,"fork,fork,fork,fork","oven,scissors,dish,knife",80% type 1/20% type 3,25,28
"0,0,89,18","true,true,true,true","3495.5999999940395,2103.5,2025.2999999970198,2693.6000000089407",50,"snail,snail,snail,snail",100,12,0,type1,"buffalo,buffalo,buffalo,buffalo","squirrel,clam,zebra,turtle",80% type 1/20% type 3,41,29
"9,11,14,4","true,true,true,true","3040.5,1899.5999999940395,1783.6000000089407,2018.3999999910593",50,"pot,pot,pot,pot",100,12,0,type3,"buffalo,buffalo,buffalo,buffalo","oven,knife,dish,scissors",80% type 1/20% type 3,63,30
"8,97,36,100","true,true,true,true","2805,2504,2427.7000000029802,5078.399999991059",50,"cabinet,cabinet,cabinet,cabinet",100,12,0,type1,"chair,chair,chair,chair","desk,couch,door,cushion",80% type 1/20% type 3,36,31
"0,98,100,100","true,true,true,true","2449.9000000059605,2756.2000000029802,1829.0999999940395,2011.9000000059605",50,"make,make,make,make",100,12,0,type1,"find,find,find,find","protect,use,allow,exist",80% type 1/20% type 3,44,32
"100,0,20,3","true,true,true,true","2725.7999999970198,2465.3999999910593,3572.6000000089407,2419.8999999910593",50,"octopus,octopus,octopus,octopus",100,12,0,type1,"alligator,alligator,alligator,alligator","lion,snail,dolphin,clam",80% type 1/20% type 3,48,33
"100,96,100,50","true,true,true,false","2686.2000000029802,1703.2000000029802,2631.9000000059605,3564.8999999910593",50,"radio,radio,radio,radio",100,12,0,type1,"toy,toy,toy,toy","pen,brush,doll,hammer",80% type 1/20% type 3,42,34
"20,84,96,98","true,true,true,true","2927.699999988079,2695.6000000089407,1971.5,1569.2999999970198",50,"bike,bike,bike,bike",100,12,0,type1,"ship,ship,ship,ship","wagon,train,airplane,submarine",80% type 1/20% type 3,17,35
"24,100,100,0","true,true,true,true","4636,2262.5,2614.2999999970198,2402.300000011921",50,"submarine,submarine,submarine,submarine",100,12,0,type1,"train,train,train,train","airplane,wagon,bike,ship",80% type 1/20% type 3,38,36
"100,1,100,50","true,true,true,false","4326.20000000298,3190.4000000059605,3737,1931.7999999970198",50,"cushion,cushion,cushion,cushion",100,12,0,type1,"chair,chair,chair,chair","desk,couch,cabinet,door",80% type 1/20% type 3,50,37
"19,100,100,4","true,true,true,true","2986,2670.2000000029802,2436,2510.9000000059605",50,"elephant,elephant,elephant,elephant",100,12,0,type1,"fox,fox,fox,fox","zebra,buffalo,squirrel,lion",80% type 1/20% type 3,13,38
"97,82,83,94","true,true,true,true","2789.2000000029802,2057,1329.0999999940395,1520.9000000059605",50,"protect,protect,protect,protect",100,12,0,type1,"allow,allow,allow,allow","use,work,exist,find",80% type 1/20% type 3,30,39
"12,6,5,10","true,true,true,true","2419.5,2404.2000000029802,2009.5999999940395,1821.4000000059605",50,"airplane,airplane,airplane,airplane",100,12,0,type3,"gloves,gloves,gloves,gloves","train,submarine,bike,ship",80% type 1/20% type 3,62,40
"16,15,9,92","true,true,true,true","2759.4000000059605,1978.2000000029802,2191.7999999970198,2393.2999999970198",50,"brush,brush,brush,brush",100,12,0,type1,"radio,radio,radio,radio","pen,doll,toy,hammer",80% type 1/20% type 3,14,41
"16,6,10,7","true,true,true,true","2304.4000000059605,3124.7999999970198,1876.2000000029802,1806.0999999940395",50,"make,make,make,make",100,12,0,type1,"allow,allow,allow,allow","exist,work,find,use",80% type 1/20% type 3,9,42
"95,95,100,98","true,true,true,true","2560,1601.6000000089407,1562.7999999970198,1421.9000000059605",50,"knife,knife,knife,knife",100,12,0,type3,"dress,dress,dress,dress","shirt,coat,gloves,necklace",80% type 1/20% type 3,65,43
"12,5,98,11","true,true,true,true","2554.800000011921,3156.8999999910593,2403.1000000089407,2268.2999999970198",50,"ship,ship,ship,ship",100,12,0,type1,"bike,bike,bike,bike","airplane,submarine,wagon,train",80% type 1/20% type 3,10,44
"100,99,91,100","true,true,true,true","2355.0999999940395,1625.7000000029802,1626.5,4585.20000000298",50,"desk,desk,desk,desk",100,12,0,type3,"shirt,shirt,shirt,shirt","coat,gloves,belt,dress",80% type 1/20% type 3,58,45
0,true,2240.4000000059605,50,left,100,12,0,catch,right,move this slider to the left,80% type 1/20% type 3,5,46
"94,99,100,97","true,true,true,true","2915.7999999970198,1549,1562.2999999970198,1600.7000000029802",50,"dress,dress,dress,dress",100,12,0,type3,"alligator,alligator,alligator,alligator","mouse,zebra,lion,fox",80% type 1/20% type 3,64,47
"12,13,10,6","true,true,true,true","3472.8999999910593,1814,1876.6000000089407,2008.5999999940395",50,"cabinet,cabinet,cabinet,cabinet",100,12,0,type3,"airplane,airplane,airplane,airplane","desk,door,couch,chair",80% type 1/20% type 3,59,48
"50,50,50,100","false,false,false,true","3623.800000011921,1194.0999999940395,712.7999999970198,3166.1000000089407",50,"snail,snail,snail,snail",100,12,0,type1,"mouse,mouse,mouse,mouse","lion,elephant,squirrel,fox",80% type 1/20% type 3,34,49
"10,9,92,50","true,true,true,false","3025.5,2451.2000000029802,2568,2135.0999999940395",50,"cushion,cushion,cushion,cushion",100,12,0,type1,"desk,desk,desk,desk","couch,cabinet,chair,door",80% type 1/20% type 3,29,50
"98,96,50,50","true,true,true,false","3370.9000000059605,4223.20000000298,3199.2000000029802,2574.8999999910593",50,"brush,brush,brush,brush",100,12,0,type1,"toy,toy,toy,toy","radio,pen,doll,hammer",80% type 1/20% type 3,7,51
"100,100,100,100","true,true,true,true","2889.7999999970198,1539.7999999970198,1367.1000000089407,2166.3999999910593",50,"work,work,work,work",100,12,0,type1,"protect,protect,protect,protect","find,exist,use,allow",80% type 1/20% type 3,16,52
"94,21,92,0","true,true,true,true","2720,2637.8999999910593,2576,3020.4000000059605",50,"submarine,submarine,submarine,submarine",100,12,0,type1,"train,train,train,train","wagon,airplane,bike,ship",80% type 1/20% type 3,45,53
"100,100,100,100","true,true,true,true","2552.5999999940395,1594.1000000089407,1577.8999999910593,2174.7000000029802",50,"scissors,scissors,scissors,scissors",100,12,0,type1,"knife,knife,knife,knife","oven,fork,pot,dish",80% type 1/20% type 3,18,54
"100,100,0,100","true,true,true,true","3512.2000000029802,2922.2000000029802,2503.8999999910593,2292.800000011921",50,"oven,oven,oven,oven",100,12,0,type1,"dish,dish,dish,dish","fork,scissors,pot,knife",80% type 1/20% type 3,46,55
"100,43,97,94","true,false,true,true","4306.4000000059605,3134,3110.0999999940395,2110.7000000029802",50,"radio,radio,radio,radio",100,12,0,type1,"brush,brush,brush,brush","toy,hammer,doll,pen",80% type 1/20% type 3,49,56
"97,98,100,100","true,true,true,true","3250.7000000029802,1445.4000000059605,1923.8999999910593,1413.7999999970198",50,"make,make,make,make",100,12,0,type3,"dish,dish,dish,dish","oven,pot,fork,scissors",80% type 1/20% type 3,56,57
"100,100,99,100","true,true,true,true","2930.8999999910593,1585.8999999910593,2073.1000000089407,1491.5999999940395",50,"belt,belt,belt,belt",100,12,0,type1,"dress,dress,dress,dress","shirt,gloves,coat,necklace",80% type 1/20% type 3,40,58
"21,20,50,17","true,true,false,true","3566.1000000089407,1996,2190.5999999940395,3344.5999999940395",50,"pen,pen,pen,pen",100,12,0,type3,"exist,exist,exist,exist","doll,brush,radio,toy",80% type 1/20% type 3,61,59
"14,100,50,97","true,true,false,true","3575.7999999970198,2604.7000000029802,2373.7000000029802,3196.699999988079",50,"pen,pen,pen,pen",100,12,0,type1,"doll,doll,doll,doll","hammer,toy,radio,brush",80% type 1/20% type 3,35,60
"24,100,9,50","true,true,true,true","2868.0999999940395,3048.0999999940395,3414.9000000059605,1532.4000000059605",50,"chair,chair,chair,chair",100,12,0,type1,"cushion,cushion,cushion,cushion","desk,couch,cabinet,door",80% type 1/20% type 3,8,61
"18,82,2,12","true,true,true,true","2600,2160,2236.800000011921,2278.199999988079",50,"toy,toy,toy,toy",100,12,0,type1,"radio,radio,radio,radio","brush,hammer,doll,pen",80% type 1/20% type 3,28,62
"14,89,100,50","true,true,true,true","3567.2999999970198,2913.2000000029802,2152.7000000029802,2063.2999999970198",50,"buffalo,buffalo,buffalo,buffalo",100,12,0,type1,"octopus,octopus,octopus,octopus","elephant,turtle,snail,mouse",80% type 1/20% type 3,27,63
"98,0,100,100","true,true,true,true","3882.7000000029802,3965.7000000029802,3118.0999999940395,3022.2000000029802",50,"necklace,necklace,necklace,necklace",100,12,0,type1,"gloves,gloves,gloves,gloves","coat,belt,dress,shirt",80% type 1/20% type 3,19,64
"7,6,100,0","true,true,true,true","2552.5999999940395,2576.2999999970198,2144,2472.7000000029802",50,"dish,dish,dish,dish",100,12,0,type1,"oven,oven,oven,oven","scissors,fork,pot,knife",80% type 1/20% type 3,32,65
"100,2,0,100","true,true,true,true","3459.9000000059605,2311.0999999940395,2323.6000000089407,2402.7000000029802",50,"gloves,gloves,gloves,gloves",100,12,0,type1,"shirt,shirt,shirt,shirt","coat,belt,necklace,dress",80% type 1/20% type 3,54,66
