sliders,choices,rt,default,left_words,max,max_duration,min,question_type,right_words,slider_words,triad_mix,trial,trial_num
"76,50,11,46","true,false,true,true","3433.2000000476837,3703.7000000476837,2701.5,3950.100000023842",50,"submarine,submarine,submarine,submarine",100,12,0,type1,"train,train,train,train","bike,wagon,ship,airplane",50% type 1/50% type 3,12,3
"24,22,24,29","true,true,true,true","2824.7000000476837,3295.6999999284744,3239.3000000715256,2804.5",50,"cabinet,cabinet,cabinet,cabinet",100,12,0,type1,"door,door,door,door","desk,cushion,couch,chair",50% type 1/50% type 3,9,4
"100,95,80,78","true,true,true,true","3249.7000000476837,2408.1999999284744,2787,2859.9000000953674",50,"wagon,wagon,wagon,wagon",100,12,0,type3,"make,make,make,make","protect,work,exist,allow",50% type 1/50% type 3,61,5
"14,23,29,32","true,true,true,true","2869.5,2308.100000023842,2682.399999976158,3564.600000023842",50,"airplane,airplane,airplane,airplane",100,12,0,type3,"use,use,use,use","ship,train,bike,submarine",50% type 1/50% type 3,46,6
"81,69,14,15","true,true,true,true","3054.899999976158,3085.100000023842,2900.7000000476837,2216.2999999523163",50,"mouse,mouse,mouse,mouse",100,12,0,type1,"dolphin,dolphin,dolphin,dolphin","clam,alligator,squirrel,snail",50% type 1/50% type 3,28,7
"23,34,72,26","true,false,true,true","3011.6999999284744,3350,2634.4000000953674,4630.899999976158",50,"ship,ship,ship,ship",100,12,0,type3,"radio,radio,radio,radio","toy,brush,pen,doll",50% type 1/50% type 3,41,8
"74,85,82,88","true,true,true,true","3031.7000000476837,2529.1999999284744,2474.399999976158,3138.3000000715256",50,"necklace,necklace,necklace,necklace",100,12,0,type3,"fork,fork,fork,fork","pot,knife,oven,scissors",50% type 1/50% type 3,44,9
"24,25,20,13","true,true,true,true","2315.7000000476837,3792.0999999046326,2810.5,4843.700000047684",50,"dress,dress,dress,dress",100,12,0,type3,"pen,pen,pen,pen","necklace,coat,shirt,belt",50% type 1/50% type 3,56,10
"76,25,73,100","true,true,true,true","2926.100000023842,2791.5999999046326,3779.100000023842,2523.3000000715256",50,"clam,clam,clam,clam",100,12,0,type3,"doll,doll,doll,doll","radio,hammer,brush,toy",50% type 1/50% type 3,62,11
"0,8,19,14","true,true,true,true","2945.2000000476837,2726.2000000476837,2812,2636.399999976158",50,"chair,chair,chair,chair",100,12,0,type3,"alligator,alligator,alligator,alligator","couch,desk,door,cushion",50% type 1/50% type 3,50,12
"75,25,85,3","true,true,true,true","2926,2997,2762.100000023842,3131.600000023842",50,"protect,protect,protect,protect",100,12,0,type1,"work,work,work,work","find,make,allow,exist",50% type 1/50% type 3,17,13
100,true,4326.5,50,left,100,12,0,catch,right,move this slider to the right,50% type 1/50% type 3,4,14
"94,83,89,76","true,true,true,true","3032.100000023842,3247,2774.899999976158,2193.7999999523163",50,"elephant,elephant,elephant,elephant",100,12,0,type3,"wagon,wagon,wagon,wagon","bike,ship,train,submarine",50% type 1/50% type 3,39,15
"97,22,85,24","true,true,true,true","3696.899999976158,5025.399999976158,2846.600000023842,4663.399999976158",50,"desk,desk,desk,desk",100,12,0,type3,"scissors,scissors,scissors,scissors","fork,dish,knife,oven",50% type 1/50% type 3,51,16
"86,89,100,94","true,true,true,true","2799.5,2148.7000000476837,3476.399999976158,2118.2999999523163",50,"dish,dish,dish,dish",100,12,0,type3,"coat,coat,coat,coat","gloves,necklace,shirt,dress",50% type 1/50% type 3,42,17
"73,85,0,10","true,true,true,true","4927.600000023842,2888.100000023842,2529.6999999284744,6703.700000047684",50,"squirrel,squirrel,squirrel,squirrel",100,12,0,type1,"zebra,zebra,zebra,zebra","dolphin,octopus,mouse,snail",50% type 1/50% type 3,7,18
"5,22,20,20","true,true,true,true","2915.8000000715256,2385.5,2721.6999999284744,2372.100000023842",50,"oven,oven,oven,oven",100,12,0,type3,"allow,allow,allow,allow","scissors,dish,pot,fork",50% type 1/50% type 3,58,19
"99,99,100,84","true,true,true,true","2779.899999976158,4479.600000023842,3130.5,2785.5",50,"protect,protect,protect,protect",100,12,0,type1,"exist,exist,exist,exist","make,find,use,allow",50% type 1/50% type 3,24,20
"10,24,21,24","true,true,true,true","2519.399999976158,3885.100000023842,4238,3560.7000000476837",50,"dish,dish,dish,dish",100,12,0,type1,"scissors,scissors,scissors,scissors","fork,oven,knife,pot",50% type 1/50% type 3,29,21
"17,0,78,79","true,true,true,true","2938.5,3276.600000023842,3432.899999976158,2503.100000023842",50,"submarine,submarine,submarine,submarine",100,12,0,type1,"airplane,airplane,airplane,airplane","train,ship,wagon,bike",50% type 1/50% type 3,19,22
100,true,2882.4000000953674,50,left,100,12,0,catch,right,move this slider to the right,50% type 1/50% type 3,6,23
"76,96,91,78","true,true,true,true","4127.199999928474,2110.899999976158,2035.8000000715256,2914.5",50,"couch,couch,couch,couch",100,12,0,type3,"wagon,wagon,wagon,wagon","airplane,bike,submarine,ship",50% type 1/50% type 3,60,24
"93,83,83,77","true,true,true,true","4150.699999928474,2380.600000023842,1904.3999999761581,2610.600000023842",50,"door,door,door,door",100,12,0,type3,"scissors,scissors,scissors,scissors","knife,dish,fork,oven",50% type 1/50% type 3,65,25
"8,18,4,12","true,true,true,true","2526.7000000476837,4561.600000023842,2863.7999999523163,2173.600000023842",50,"alligator,alligator,alligator,alligator",100,12,0,type3,"coat,coat,coat,coat","dolphin,elephant,fox,snail",50% type 1/50% type 3,52,26
"93,85,1,9","true,true,true,true","5116.399999976158,3047.7999999523163,2818.600000023842,2859.100000023842",50,"cushion,cushion,cushion,cushion",100,12,0,type1,"couch,couch,couch,couch","door,cabinet,chair,desk",50% type 1/50% type 3,30,27
"12,0,79,77","true,true,true,true","4563.100000023842,3331.1999999284744,2749.899999976158,3451.7000000476837",50,"ship,ship,ship,ship",100,12,0,type1,"airplane,airplane,airplane,airplane","bike,submarine,wagon,train",50% type 1/50% type 3,26,28
"18,90,92,85","true,true,true,true","2905.899999976158,2207.2000000476837,2191.7999999523163,2986.7999999523163",50,"zebra,zebra,zebra,zebra",100,12,0,type1,"fox,fox,fox,fox","elephant,mouse,turtle,clam",50% type 1/50% type 3,14,29
0,true,3064.3000000715256,50,left,100,12,0,catch,right,move this slider to the left,50% type 1/50% type 3,3,30
"18,16,14,32","true,true,true,true","2949.6999999284744,2115.899999976158,2487.2000000476837,2173.5",50,"mouse,mouse,mouse,mouse",100,12,0,type3,"toy,toy,toy,toy","zebra,turtle,snail,fox",50% type 1/50% type 3,45,31
"2,17,21,12","true,true,true,true","3024.600000023842,2228,3062.7999999523163,2294.100000023842",50,"work,work,work,work",100,12,0,type3,"mouse,mouse,mouse,mouse","make,protect,use,find",50% type 1/50% type 3,40,32
"11,88,93,48","true,true,true,true","3620.6999999284744,3482.5,2412.3000000715256,4313.899999976158",50,"fork,fork,fork,fork",100,12,0,type3,"hammer,hammer,hammer,hammer","pen,doll,toy,radio",50% type 1/50% type 3,48,33
"18,9,89,76","true,true,true,true","2902.5,2063.1999999284744,2772.8000000715256,1979.5999999046326",50,"octopus,octopus,octopus,octopus",100,12,0,type1,"snail,snail,snail,snail","dolphin,elephant,clam,squirrel",50% type 1/50% type 3,21,34
"25,0,24,0","true,true,true,true","2622.2999999523163,2419.2000000476837,5144.299999952316,2329.2999999523163",50,"couch,couch,couch,couch",100,12,0,type3,"find,find,find,find","door,cushion,desk,chair",50% type 1/50% type 3,57,35
"100,86,100,100","true,true,true,true","2530.600000023842,2997,2346.899999976158,1836.8000000715256",50,"oven,oven,oven,oven",100,12,0,type1,"pot,pot,pot,pot","dish,scissors,fork,knife",50% type 1/50% type 3,15,36
"83,97,94,100","true,true,true,true","2888.600000023842,2316.5,2199.2000000476837,2024.6999999284744",50,"submarine,submarine,submarine,submarine",100,12,0,type3,"allow,allow,allow,allow","work,use,exist,protect",50% type 1/50% type 3,47,37
"13,0,76,88","true,true,true,true","4092,4640.199999928474,2096.600000023842,1795.8999999761581",50,"desk,desk,desk,desk",100,12,0,type1,"couch,couch,couch,couch","door,cabinet,chair,cushion",50% type 1/50% type 3,16,38
"10,10,18,24","true,true,true,true","3473.7999999523163,2783.100000023842,1947.5,2277.399999976158",50,"radio,radio,radio,radio",100,12,0,type3,"door,door,door,door","hammer,brush,doll,pen",50% type 1/50% type 3,55,39
"9,10,1,11","true,false,true,true","3830.0999999046326,2903.3000000715256,3579.7999999523163,2298.899999976158",50,"knife,knife,knife,knife",100,12,0,type1,"oven,oven,oven,oven","dish,pot,fork,scissors",50% type 1/50% type 3,8,40
"5,11,8,8","true,true,true,true","3606,2064.7000000476837,2467.2999999523163,5409",50,"buffalo,buffalo,buffalo,buffalo",100,12,0,type3,"shirt,shirt,shirt,shirt","zebra,elephant,octopus,mouse",50% type 1/50% type 3,59,41
"15,20,0,27","true,true,false,true","3234.600000023842,3770.5,6317.699999928474,2835.100000023842",50,"knife,knife,knife,knife",100,12,0,type1,"fork,fork,fork,fork","oven,pot,scissors,dish",50% type 1/50% type 3,22,42
"15,8,8,11","true,true,true,true","2636.3000000715256,2354.5,2042.1999999284744,2492.100000023842",50,"snail,snail,snail,snail",100,12,0,type3,"pot,pot,pot,pot","dolphin,squirrel,mouse,buffalo",50% type 1/50% type 3,38,43
"90,83,11,99","true,true,true,true","2442.1999999284744,2020.8000000715256,2276.6999999284744,2097.5",50,"dolphin,dolphin,dolphin,dolphin",100,12,0,type1,"mouse,mouse,mouse,mouse","fox,snail,lion,squirrel",50% type 1/50% type 3,35,44
"100,75,99,100","true,true,true,true","2734,3090.7000000476837,2503.6999999284744,2844.7000000476837",50,"oven,oven,oven,oven",100,12,0,type3,"cushion,cushion,cushion,cushion","couch,cabinet,desk,chair",50% type 1/50% type 3,43,45
"71,23,0,6","true,true,true,true","3037.5,2552.399999976158,5135.200000047684,2079.5",50,"fork,fork,fork,fork",100,12,0,type3,"couch,couch,couch,couch","oven,scissors,knife,pot",50% type 1/50% type 3,37,46
"0,31,23,74","true,true,true,true","2710,1884.7000000476837,3128.6999999284744,1915.1000000238419",50,"shirt,shirt,shirt,shirt",100,12,0,type1,"coat,coat,coat,coat","necklace,belt,dress,gloves",50% type 1/50% type 3,25,47
"85,26,31,18","true,true,true,true","4313.5,2817,2489.9000000953674,3946.5999999046326",50,"oven,oven,oven,oven",100,12,0,type1,"scissors,scissors,scissors,scissors","knife,dish,fork,pot",50% type 1/50% type 3,36,48
"74,93,89,86","true,true,true,true","2603.6999999284744,2528.7000000476837,3232.7999999523163,2037.5",50,"radio,radio,radio,radio",100,12,0,type1,"hammer,hammer,hammer,hammer","pen,doll,toy,brush",50% type 1/50% type 3,20,49
"90,82,91,92","true,true,true,true","2762.3000000715256,2147.6999999284744,2856.600000023842,2801.3000000715256",50,"cabinet,cabinet,cabinet,cabinet",100,12,0,type3,"necklace,necklace,necklace,necklace","gloves,shirt,dress,coat",50% type 1/50% type 3,49,50
"88,81,77,90","true,true,true,true","3007.600000023842,2183.7000000476837,1937.3999999761581,3154.1999999284744",50,"wagon,wagon,wagon,wagon",100,12,0,type3,"door,door,door,door","desk,chair,cushion,cabinet",50% type 1/50% type 3,64,51
"100,93,91,87","true,true,true,true","3117.6999999284744,1720.3000000715256,1689.3999999761581,2859.6999999284744",50,"exist,exist,exist,exist",100,12,0,type3,"alligator,alligator,alligator,alligator","buffalo,octopus,clam,lion",50% type 1/50% type 3,66,52
"13,4,14,12","true,true,true,true","2851.399999976158,2133.899999976158,2234,2338.8000000715256",50,"protect,protect,protect,protect",100,12,0,type3,"shirt,shirt,shirt,shirt","find,exist,work,make",50% type 1/50% type 3,54,53
"100,16,96,15","true,true,true,true","3591.5,2190,1963.2999999523163,2854.2000000476837",50,"make,make,make,make",100,12,0,type1,"use,use,use,use","find,work,protect,allow",50% type 1/50% type 3,31,54
"82,80,25,10","true,true,true,true","4116.600000023842,2690.100000023842,2751.3000000715256,2154.6999999284744",50,"necklace,necklace,necklace,necklace",100,12,0,type1,"belt,belt,belt,belt","gloves,shirt,dress,coat",50% type 1/50% type 3,32,55
0,true,3319.2000000476837,50,left,100,12,0,catch,right,move this slider to the left,50% type 1/50% type 3,5,56
"7,14,9,8","true,true,true,true","2950.5,2095.100000023842,2377.6999999284744,2742.100000023842",50,"work,work,work,work",100,12,0,type1,"allow,allow,allow,allow","use,exist,make,protect",50% type 1/50% type 3,10,57
"13,87,11,19","true,true,true,true","2292.5,2080.3000000715256,2548.7999999523163,2719.7000000476837",50,"toy,toy,toy,toy",100,12,0,type1,"hammer,hammer,hammer,hammer","brush,radio,doll,pen",50% type 1/50% type 3,13,58
"100,23,6,17","true,true,false,true","2875.7000000476837,2760.399999976158,3470.7999999523163,2813.2000000476837",50,"wagon,wagon,wagon,wagon",100,12,0,type1,"submarine,submarine,submarine,submarine","ship,bike,airplane,train",50% type 1/50% type 3,33,59
"82,84,11,21","true,true,true,true","2050,2070.5,2171,2972.5999999046326",50,"shirt,shirt,shirt,shirt",100,12,0,type1,"coat,coat,coat,coat","gloves,belt,necklace,dress",50% type 1/50% type 3,11,60
"21,84,20,79","true,true,true,true","2442.9000000953674,2034.2999999523163,2651.899999976158,2098.3000000715256",50,"pen,pen,pen,pen",100,12,0,type1,"brush,brush,brush,brush","toy,hammer,doll,radio",50% type 1/50% type 3,27,61
"17,14,10,7","true,true,true,true","4044.100000023842,4709.699999928474,2610.9000000953674,2904.2999999523163",50,"gloves,gloves,gloves,gloves",100,12,0,type3,"chair,chair,chair,chair","necklace,coat,shirt,belt",50% type 1/50% type 3,63,62
"79,1,14,14","true,true,true,true","6436.799999952316,2989.100000023842,3902.2999999523163,2073.7000000476837",50,"brush,brush,brush,brush",100,12,0,type1,"hammer,hammer,hammer,hammer","pen,radio,doll,toy",50% type 1/50% type 3,34,63
"81,14,15,21","true,true,true,true","4992.700000047684,3665.600000023842,3446.1999999284744,2440.600000023842",50,"belt,belt,belt,belt",100,12,0,type1,"gloves,gloves,gloves,gloves","necklace,coat,shirt,dress",50% type 1/50% type 3,18,64
"2,23,33,28","true,true,true,true","3068.600000023842,2554.100000023842,2133.600000023842,8173.700000047684",50,"train,train,train,train",100,12,0,type3,"chair,chair,chair,chair","wagon,submarine,airplane,bike",50% type 1/50% type 3,53,65
"17,15,9,83","true,true,true,true","4586.5,2764.100000023842,2321.0999999046326,5487.5",50,"desk,desk,desk,desk",100,12,0,type1,"cabinet,cabinet,cabinet,cabinet","cushion,couch,chair,door",50% type 1/50% type 3,23,66
