sliders,choices,rt,default,left_words,max,max_duration,min,question_type,right_words,slider_words,triad_mix,trial,trial_num
"100,100,0,0","true,true,true,true","3001.5999999046326,2325.100000143051,4002.600000143051,4237",50,"dish,dish,dish,dish",100,12,0,type1,"pot,pot,pot,pot","scissors,oven,fork,knife",50% type 1/50% type 3,34,3
"100,100,100,100","true,true,true,true","4501.300000190735,2364.5,1992.3999998569489,2065.9000000953674",50,"desk,desk,desk,desk",100,12,0,type3,"shirt,shirt,shirt,shirt","belt,coat,necklace,dress",50% type 1/50% type 3,41,4
"0,0,0,2","true,true,true,true","4332.400000095367,4382.900000095367,2995.5,3250.2999999523163",50,"submarine,submarine,submarine,submarine",100,12,0,type3,"allow,allow,allow,allow","airplane,train,bike,ship",50% type 1/50% type 3,50,5
"100,100,100,100","true,true,true,true","3528.7999999523163,1936.9000000953674,1904.2999999523163,2674.5999999046326",50,"submarine,submarine,submarine,submarine",100,12,0,type1,"ship,ship,ship,ship","wagon,train,bike,airplane",50% type 1/50% type 3,11,6
"100,100,100,0","true,true,true,true","2934.2999999523163,1614.7000000476837,2429.2999999523163,3041.399999856949",50,"desk,desk,desk,desk",100,12,0,type3,"knife,knife,knife,knife","pot,fork,dish,scissors",50% type 1/50% type 3,37,7
"100,100,100,100","true,true,true,true","4253.700000047684,3262.899999856949,5899.799999952316,5815.900000095367",50,"allow,allow,allow,allow",100,12,0,type1,"work,work,work,work","protect,make,find,use",50% type 1/50% type 3,33,8
"100,99,100,50","true,true,true,true","2686.5,2334.5999999046326,2558.5,2451.100000143051",50,"octopus,octopus,octopus,octopus",100,12,0,type3,"brush,brush,brush,brush","radio,toy,pen,hammer",50% type 1/50% type 3,46,9
"50,50,50,50","true,true,true,true","1313.5,742.5,701.7000000476837,724.2999999523163",50,"octopus,octopus,octopus,octopus",100,12,0,type1,"lion,lion,lion,lion","buffalo,dolphin,clam,fox",50% type 1/50% type 3,28,10
100,true,3336.5,50,left,100,12,0,catch,right,move this slider to the right,50% type 1/50% type 3,6,11
"50,50,50,50","true,true,true,true","1935.5,985.0999999046326,798.4000000953674,902.2000000476837",50,"shirt,shirt,shirt,shirt",100,12,0,type1,"coat,coat,coat,coat","belt,necklace,gloves,dress",50% type 1/50% type 3,30,12
"50,50,50,50","true,true,true,true","1654.5999999046326,693.9000000953674,759.8999998569489,819.7999999523163",50,"couch,couch,couch,couch",100,12,0,type1,"desk,desk,desk,desk","chair,door,cabinet,cushion",50% type 1/50% type 3,10,13
"50,50,50,50","true,true,true,true","1380.5999999046326,637.8000001907349,895.7999999523163,934.3999998569489",50,"zebra,zebra,zebra,zebra",100,12,0,type3,"make,make,make,make","work,allow,use,find",50% type 1/50% type 3,56,14
"50,50,50,50","true,true,true,true","1033.2999999523163,849.8999998569489,774.8000001907349,708.0999999046326",50,"airplane,airplane,airplane,airplane",100,12,0,type1,"submarine,submarine,submarine,submarine","train,bike,wagon,ship",50% type 1/50% type 3,18,15
"50,50,50,50","true,true,true,true","1466.7999999523163,1549.8000001907349,766.3999998569489,635.7000000476837",50,"train,train,train,train",100,12,0,type1,"airplane,airplane,airplane,airplane","submarine,ship,bike,wagon",50% type 1/50% type 3,32,16
"50,50,50,50","false,false,false,false","890,660.0999999046326,1049.5999999046326,837.2000000476837",50,"toy,toy,toy,toy",100,12,0,type1,"brush,brush,brush,brush","hammer,radio,doll,pen",50% type 1/50% type 3,8,17
"50,50,50,50","true,true,false,true","2502.100000143051,604.5,629.3999998569489,1063.4000000953674",50,"hammer,hammer,hammer,hammer",100,12,0,type3,"fork,fork,fork,fork","dish,oven,knife,pot",50% type 1/50% type 3,58,18
"50,50,50,50","false,false,false,false","1250.7999999523163,669.6000001430511,4653.399999856949,845",50,"cabinet,cabinet,cabinet,cabinet",100,12,0,type3,"necklace,necklace,necklace,necklace","dress,coat,belt,gloves",50% type 1/50% type 3,62,19
"50,50,50,50","true,true,true,false","1039.2000000476837,526.4000000953674,587.8999998569489,578.8000001907349",50,"belt,belt,belt,belt",100,12,0,type1,"gloves,gloves,gloves,gloves","shirt,coat,dress,necklace",50% type 1/50% type 3,16,20
50,true,1257.3000001907349,50,left,100,12,0,catch,right,move this slider to the left,50% type 1/50% type 3,5,21
"50,50,50,50","true,false,false,true","1451.3000001907349,1232.8999998569489,878.2000000476837,733",50,"train,train,train,train",100,12,0,type3,"allow,allow,allow,allow","ship,wagon,bike,airplane",50% type 1/50% type 3,43,22
"50,50,50,50","true,true,true,false","2343.2999999523163,975.2999999523163,840.7000000476837,1135.9000000953674",50,"pen,pen,pen,pen",100,12,0,type3,"fork,fork,fork,fork","toy,brush,hammer,radio",50% type 1/50% type 3,53,23
"50,50,50,50","false,false,false,false","3201.9000000953674,629.3999998569489,613.6000001430511,700.5",50,"exist,exist,exist,exist",100,12,0,type1,"find,find,find,find","work,make,allow,use",50% type 1/50% type 3,12,24
"50,50,50,50","true,false,false,false","2289.7999999523163,533.2000000476837,3262.100000143051,651.5",50,"chair,chair,chair,chair",100,12,0,type1,"couch,couch,couch,couch","cushion,door,cabinet,desk",50% type 1/50% type 3,17,25
"50,50,50,50","false,true,true,false","957.5999999046326,742.5999999046326,718.2000000476837,691.6000001430511",50,"turtle,turtle,turtle,turtle",100,12,0,type3,"dress,dress,dress,dress","mouse,buffalo,zebra,elephant",50% type 1/50% type 3,66,26
"50,50,50,50","false,false,false,false","858.2000000476837,863.5999999046326,531.7999999523163,1072.9000000953674",50,"scissors,scissors,scissors,scissors",100,12,0,type1,"fork,fork,fork,fork","dish,knife,oven,pot",50% type 1/50% type 3,27,27
"50,50,50,50","true,true,true,false","1275.5,484,928.5,594.9000000953674",50,"belt,belt,belt,belt",100,12,0,type3,"toy,toy,toy,toy","doll,brush,pen,radio",50% type 1/50% type 3,39,28
"50,50,50,50","true,true,true,false","1662.4000000953674,589.4000000953674,1171.3999998569489,553.7999999523163",50,"door,door,door,door",100,12,0,type3,"gloves,gloves,gloves,gloves","cabinet,chair,couch,desk",50% type 1/50% type 3,61,29
"50,50,50,50","false,true,true,true","1142.2000000476837,621.2999999523163,815,1208.3999998569489",50,"hammer,hammer,hammer,hammer",100,12,0,type1,"radio,radio,radio,radio","toy,doll,brush,pen",50% type 1/50% type 3,22,30
"50,50,50,50","false,false,true,true","894.7999999523163,572.7999999523163,565.0999999046326,555.2000000476837",50,"pen,pen,pen,pen",100,12,0,type1,"brush,brush,brush,brush","radio,doll,hammer,toy",50% type 1/50% type 3,29,31
"50,50,50,50","true,true,true,false","1127.2000000476837,443.89999985694885,1259.2000000476837,732.2000000476837",50,"work,work,work,work",100,12,0,type1,"find,find,find,find","allow,use,exist,make",50% type 1/50% type 3,19,32
"100,50,50,50","false,false,true,true","1952.4000000953674,1815.6999998092651,589.3000001907349,571.0999999046326",50,"dish,dish,dish,dish",100,12,0,type1,"fork,fork,fork,fork","knife,oven,pot,scissors",50% type 1/50% type 3,13,33
"100,82,94,97","true,false,false,true","4597.299999952316,1766.3999998569489,1944.8000001907349,1621.1999998092651",50,"lion,lion,lion,lion",100,12,0,type1,"mouse,mouse,mouse,mouse","snail,squirrel,clam,alligator",50% type 1/50% type 3,35,34
"1,50,50,50","true,true,true,true","3917.600000143051,1089.8999998569489,726.6000001430511,1143",50,"doll,doll,doll,doll",100,12,0,type1,"radio,radio,radio,radio","brush,pen,hammer,toy",50% type 1/50% type 3,15,35
50,true,7288.099999904633,50,left,100,12,0,catch,right,move this slider to the right,50% type 1/50% type 3,4,36
"50,50,50,50","true,false,false,false","8498.5,2309.7000000476837,903.5,762",50,"belt,belt,belt,belt",100,12,0,type3,"ship,ship,ship,ship","bike,submarine,airplane,wagon",50% type 1/50% type 3,57,37
"50,50,50,50","true,true,true,true","1678.5,637.1000001430511,823.0999999046326,1063.6000001430511",50,"ship,ship,ship,ship",100,12,0,type3,"protect,protect,protect,protect","find,exist,use,allow",50% type 1/50% type 3,42,38
50,true,1650.5999999046326,50,left,100,12,0,catch,right,move this slider to the left,50% type 1/50% type 3,3,39
"50,50,50,50","false,true,true,true","4197.200000047684,822.7000000476837,798.9000000953674,781.2000000476837",50,"exist,exist,exist,exist",100,12,0,type1,"use,use,use,use","protect,make,find,work",50% type 1/50% type 3,26,40
"50,50,50,50","true,true,true,true","3848.199999809265,806.5,710.3000001907349,1419.5",50,"door,door,door,door",100,12,0,type3,"dolphin,dolphin,dolphin,dolphin","clam,turtle,zebra,mouse",50% type 1/50% type 3,38,41
"50,50,50,50","true,true,true,true","2701.2000000476837,758.6000001430511,847.5999999046326,731.7000000476837",50,"radio,radio,radio,radio",100,12,0,type1,"toy,toy,toy,toy","hammer,doll,brush,pen",50% type 1/50% type 3,36,42
"50,50,50,50","true,false,false,false","2610.7999999523163,621.5,677.5,620.7000000476837",50,"shirt,shirt,shirt,shirt",100,12,0,type1,"necklace,necklace,necklace,necklace","dress,gloves,coat,belt",50% type 1/50% type 3,9,43
"50,50,50,50","true,true,true,true","2559.7000000476837,790.6000001430511,725.8999998569489,668.2000000476837",50,"airplane,airplane,airplane,airplane",100,12,0,type1,"ship,ship,ship,ship","wagon,train,submarine,bike",50% type 1/50% type 3,25,44
"50,50,50,50","true,true,false,false","1400.6000001430511,678.0999999046326,597,700.2000000476837",50,"dolphin,dolphin,dolphin,dolphin",100,12,0,type1,"alligator,alligator,alligator,alligator","clam,buffalo,mouse,lion",50% type 1/50% type 3,21,45
"50,50,50,50","true,true,true,true","1123.2999999523163,526.9000000953674,637.6999998092651,595.2000000476837",50,"dish,dish,dish,dish",100,12,0,type3,"elephant,elephant,elephant,elephant","octopus,zebra,alligator,clam",50% type 1/50% type 3,45,46
"50,50,50,50","false,false,false,false","833.5999999046326,580.9000000953674,623.0999999046326,609.5999999046326",50,"oven,oven,oven,oven",100,12,0,type3,"train,train,train,train","pot,scissors,knife,fork",50% type 1/50% type 3,65,47
"50,50,50,50","true,true,true,false","976.0999999046326,614.2999999523163,1023.6000001430511,571.5",50,"oven,oven,oven,oven",100,12,0,type1,"knife,knife,knife,knife","scissors,pot,fork,dish",50% type 1/50% type 3,20,48
"50,50,50,50","true,false,true,true","2135.0999999046326,556.5999999046326,629.5,643.4000000953674",50,"airplane,airplane,airplane,airplane",100,12,0,type3,"shirt,shirt,shirt,shirt","train,submarine,bike,ship",50% type 1/50% type 3,64,49
"50,50,50,50","false,false,true,true","1029.2999999523163,516.2999999523163,557.5,1022.1000001430511",50,"squirrel,squirrel,squirrel,squirrel",100,12,0,type3,"brush,brush,brush,brush","pen,radio,toy,hammer",50% type 1/50% type 3,60,50
"50,50,50,50","true,false,true,true","1259.4000000953674,525.7999999523163,871.7000000476837,1077.7000000476837",50,"cabinet,cabinet,cabinet,cabinet",100,12,0,type1,"door,door,door,door","cushion,couch,desk,chair",50% type 1/50% type 3,24,51
"50,50,50,50","true,false,true,true","992.0999999046326,621.2999999523163,798.9000000953674,691.7999999523163",50,"gloves,gloves,gloves,gloves",100,12,0,type3,"cabinet,cabinet,cabinet,cabinet","door,desk,cushion,chair",50% type 1/50% type 3,54,52
"50,50,50,50","true,true,true,true","1730,596.2999999523163,790.6000001430511,679",50,"bike,bike,bike,bike",100,12,0,type3,"allow,allow,allow,allow","find,protect,make,exist",50% type 1/50% type 3,49,53
"50,50,50,50","false,false,false,false","1183,670.6000001430511,863.8999998569489,763.4000000953674",50,"mouse,mouse,mouse,mouse",100,12,0,type1,"snail,snail,snail,snail","zebra,squirrel,lion,turtle",50% type 1/50% type 3,14,54
"50,50,50,50","true,false,true,true","1167.6000001430511,605.5999999046326,812.7999999523163,701.7999999523163",50,"cushion,cushion,cushion,cushion",100,12,0,type3,"mouse,mouse,mouse,mouse","couch,chair,desk,cabinet",50% type 1/50% type 3,40,55
"50,50,50,50","true,true,true,false","1522.0999999046326,530,581.7000000476837,629.2999999523163",50,"couch,couch,couch,couch",100,12,0,type1,"cushion,cushion,cushion,cushion","chair,desk,cabinet,door",50% type 1/50% type 3,31,56
"50,50,50,50","false,true,true,true","983.7000000476837,879.5999999046326,605,659.9000000953674",50,"train,train,train,train",100,12,0,type3,"protect,protect,protect,protect","work,use,allow,find",50% type 1/50% type 3,63,57
"50,50,50,50","false,true,true,true","1568.5,598.7999999523163,629.6000001430511,764.0999999046326",50,"protect,protect,protect,protect",100,12,0,type3,"shirt,shirt,shirt,shirt","belt,gloves,necklace,coat",50% type 1/50% type 3,55,58
"50,50,50,50","true,true,false,false","1200.0999999046326,822.7000000476837,614.2000000476837,602",50,"elephant,elephant,elephant,elephant",100,12,0,type1,"alligator,alligator,alligator,alligator","fox,dolphin,squirrel,turtle",50% type 1/50% type 3,7,59
"100,50,50,50","true,true,true,true","3314.199999809265,605.5,1145.3000001907349,586.7999999523163",50,"necklace,necklace,necklace,necklace",100,12,0,type1,"gloves,gloves,gloves,gloves","coat,dress,belt,shirt",50% type 1/50% type 3,23,60
"50,50,50,50","true,true,true,false","855.8000001907349,960.5999999046326,1027.7000000476837,681.0999999046326",50,"cushion,cushion,cushion,cushion",100,12,0,type3,"oven,oven,oven,oven","fork,dish,pot,scissors",50% type 1/50% type 3,51,61
"50,50,50,50","true,false,true,true","935.8999998569489,597,572.9000000953674,611.2999999523163",50,"zebra,zebra,zebra,zebra",100,12,0,type3,"pen,pen,pen,pen","elephant,alligator,octopus,turtle",50% type 1/50% type 3,52,62
"50,50,50,50","true,true,true,false","1130.7000000476837,516.2999999523163,573.2999999523163,700.2000000476837",50,"belt,belt,belt,belt",100,12,0,type3,"cabinet,cabinet,cabinet,cabinet","chair,desk,door,cushion",50% type 1/50% type 3,47,63
"50,50,50,50","true,true,false,true","1217.9000000953674,968.5999999046326,556.3999998569489,620.1000001430511",50,"lion,lion,lion,lion",100,12,0,type3,"oven,oven,oven,oven","octopus,mouse,buffalo,squirrel",50% type 1/50% type 3,59,64
"50,50,50,50","true,false,true,false","1130.7000000476837,573.0999999046326,1112.7000000476837,450.40000009536743",50,"make,make,make,make",100,12,0,type3,"coat,coat,coat,coat","dress,belt,shirt,necklace",50% type 1/50% type 3,48,65
"50,50,50,50","true,true,false,false","1079.6999998092651,553.2000000476837,972.1000001430511,587.2999999523163",50,"pot,pot,pot,pot",100,12,0,type3,"work,work,work,work","knife,scissors,oven,dish",50% type 1/50% type 3,44,66
