sliders,choices,rt,default,left_words,max,max_duration,min,question_type,right_words,slider_words,triad_mix,trial,trial_num
"100,100,100,88","true,true,true,true","4324.5,2660.899999976158,2400,2128.7999999523163",50,"pot,pot,pot,pot",100,12,0,type1,"knife,knife,knife,knife","dish,scissors,oven,fork",80% type 1/20% type 3,39,3
"89,99,11,78","true,true,true,true","2261.600000023842,1804.8999999761581,1932,5415.900000035763",50,"wagon,wagon,wagon,wagon",100,12,0,type1,"submarine,submarine,submarine,submarine","train,airplane,bike,ship",80% type 1/20% type 3,13,4
"83,99,100,79","true,true,true,true","2180.599999964237,1638.800000011921,1511.199999988079,1511.800000011921",50,"shirt,shirt,shirt,shirt",100,12,0,type3,"cabinet,cabinet,cabinet,cabinet","dress,belt,coat,necklace",80% type 1/20% type 3,58,5
"91,100,78,0","true,true,false,true","9139.899999976158,2322.100000023842,1804.800000011921,4156",50,"lion,lion,lion,lion",100,12,0,type1,"snail,snail,snail,snail","dolphin,buffalo,turtle,mouse",80% type 1/20% type 3,15,6
"86,32,97,80","true,true,true,true","3912.600000023842,2093.2999999523163,2120.800000011921,1732.9000000357628",50,"hammer,hammer,hammer,hammer",100,12,0,type1,"radio,radio,radio,radio","doll,pen,toy,brush",80% type 1/20% type 3,45,7
"100,76,77,84","true,true,true,true","1883.199999988079,1591.8999999761581,1931.9000000357628,2540",50,"ship,ship,ship,ship",100,12,0,type1,"bike,bike,bike,bike","submarine,airplane,wagon,train",80% type 1/20% type 3,34,8
"87,100,0,20","true,true,true,true","3443,1526.2000000476837,1394.5,1715.5",50,"fork,fork,fork,fork",100,12,0,type1,"pot,pot,pot,pot","scissors,knife,oven,dish",80% type 1/20% type 3,18,9
"100,95,6,50","true,true,true,","1936.3999999761581,1576.4000000357628,4107,,12039.399999976158",50,"dress,dress,dress,dress",100,12,0,type1,"shirt,shirt,shirt,shirt","coat,necklace,belt,gloves",80% type 1/20% type 3,35,10
"79,50,50,50","true,,,","2366.5,,12038.800000011921,12036,12039.300000011921",50,"dress,dress,dress,dress",100,12,0,type1,"belt,belt,belt,belt","necklace,coat,gloves,shirt",80% type 1/20% type 3,14,11
"88,68,77,100","true,true,true,true","1765.699999988079,1702.6000000238419,1600.1000000238419,1549.699999988079",50,"make,make,make,make",100,12,0,type1,"find,find,find,find","protect,exist,use,allow",80% type 1/20% type 3,40,12
"77,2,97,66","true,true,true,true","2232.199999988079,2057.2000000476837,1482.3999999761581,1629.199999988079",50,"mouse,mouse,mouse,mouse",100,12,0,type1,"elephant,elephant,elephant,elephant","turtle,clam,squirrel,zebra",80% type 1/20% type 3,36,13
"80,0,78,71","true,true,true,true","1633.5,3119.5,1655.0999999642372,1874.4000000357628",50,"gloves,gloves,gloves,gloves",100,12,0,type3,"find,find,find,find","coat,dress,belt,necklace",80% type 1/20% type 3,65,14
"85,20,38,30","true,true,true,true","3138.300000011921,2868,1654.3999999761581,1850.699999988079",50,"buffalo,buffalo,buffalo,buffalo",100,12,0,type1,"clam,clam,clam,clam","mouse,dolphin,squirrel,lion",80% type 1/20% type 3,29,15
"95,100,15,28","true,true,true,true","1584.300000011921,1459.6000000238419,1740.1000000238419,1526.699999988079",50,"shirt,shirt,shirt,shirt",100,12,0,type1,"belt,belt,belt,belt","coat,gloves,dress,necklace",80% type 1/20% type 3,49,16
"80,73,8,31","true,true,true,true","2482.2999999523163,1727.1000000238419,1576,1391.1000000238419",50,"protect,protect,protect,protect",100,12,0,type1,"exist,exist,exist,exist","make,allow,work,use",80% type 1/20% type 3,47,17
"80,83,21,87","true,true,true,true","1554.9000000357628,1806.5,1964.5,1692.0999999642372",50,"couch,couch,couch,couch",100,12,0,type1,"desk,desk,desk,desk","cushion,cabinet,chair,door",80% type 1/20% type 3,37,18
"69,41,91,19","false,true,false,false","2307.199999988079,1559.300000011921,1394.5,2094.099999964237",50,"knife,knife,knife,knife",100,12,0,type1,"pot,pot,pot,pot","oven,fork,dish,scissors",80% type 1/20% type 3,46,19
"93,0,100,100","true,true,false,true","1515.199999988079,2145.100000023842,1401.699999988079,1637.0999999642372",50,"allow,allow,allow,allow",100,12,0,type1,"work,work,work,work","make,protect,exist,find",80% type 1/20% type 3,12,20
"91,100,63,85","true,true,true,true","1809.6000000238419,1535,1505,1330.3999999761581",50,"pot,pot,pot,pot",100,12,0,type1,"scissors,scissors,scissors,scissors","dish,fork,knife,oven",80% type 1/20% type 3,11,21
"83,88,77,20","true,false,false,false","1420.5,2232.199999988079,1392.9000000357628,2047.8999999761581",50,"chair,chair,chair,chair",100,12,0,type1,"cabinet,cabinet,cabinet,cabinet","couch,door,desk,cushion",80% type 1/20% type 3,51,22
"77,28,71,66","false,false,false,false","1446.5999999642372,1767.6000000238419,1449,1613",50,"squirrel,squirrel,squirrel,squirrel",100,12,0,type3,"work,work,work,work","octopus,alligator,elephant,clam",80% type 1/20% type 3,56,23
"71,50,62,91","false,false,false,false","1682.8999999761581,11309.300000011921,1575.0999999642372,1502.9000000357628",50,"pen,pen,pen,pen",100,12,0,type1,"brush,brush,brush,brush","radio,doll,toy,hammer",80% type 1/20% type 3,52,24
"79,70,50,50","false,false,false,false","1888.800000011921,1431.0999999642372,1644.1000000238419,1483.300000011921",50,"squirrel,squirrel,squirrel,squirrel",100,12,0,type1,"elephant,elephant,elephant,elephant","turtle,lion,clam,zebra",80% type 1/20% type 3,8,25
"50,50,50,50","false,false,false,false","849.8000000119209,965.5999999642372,776.1999999880791,925",50,"necklace,necklace,necklace,necklace",100,12,0,type1,"dress,dress,dress,dress","shirt,coat,gloves,belt",80% type 1/20% type 3,28,26
"50,50,50,50","false,false,false,false","772.5999999642372,641.1999999880791,5598.600000023842,839.1000000238419",50,"airplane,airplane,airplane,airplane",100,12,0,type1,"ship,ship,ship,ship","submarine,bike,train,wagon",80% type 1/20% type 3,41,27
"50,50,50,50","false,false,false,false","805.8000000119209,870.8000000119209,1131.5,845.0999999642372",50,"work,work,work,work",100,12,0,type1,"make,make,make,make","protect,exist,use,allow",80% type 1/20% type 3,19,28
"50,50,50,50","false,false,false,false","960.1999999880791,2011,990.6000000238419,963.8000000119209",50,"make,make,make,make",100,12,0,type1,"work,work,work,work","protect,allow,use,exist",80% type 1/20% type 3,33,29
"50,50,50,50","false,false,false,false","1039.699999988079,786.3000000119209,610.3000000119209,708.6999999880791",50,"elephant,elephant,elephant,elephant",100,12,0,type1,"clam,clam,clam,clam","turtle,lion,dolphin,alligator",80% type 1/20% type 3,22,30
"50,50,50,50","true,false,false,false","1001.3000000119209,3130.100000023842,870.1999999880791,1232.800000011921",50,"mouse,mouse,mouse,mouse",100,12,0,type1,"alligator,alligator,alligator,alligator","clam,lion,zebra,turtle",80% type 1/20% type 3,50,31
"50,50,50,50","false,false,false,false","832.3000000119209,816.5,839.1000000238419,687.5999999642372",50,"submarine,submarine,submarine,submarine",100,12,0,type1,"ship,ship,ship,ship","airplane,train,bike,wagon",80% type 1/20% type 3,20,32
"50,50,50,50","false,false,false,false","1092,666.8000000119209,624.6000000238419,757.1999999880791",50,"desk,desk,desk,desk",100,12,0,type1,"chair,chair,chair,chair","cushion,cabinet,couch,door",80% type 1/20% type 3,16,33
"50,50,50,50","false,false,true,false","1190.0999999642372,640.8000000119209,593.6000000238419,1004.2999999523163",50,"scissors,scissors,scissors,scissors",100,12,0,type3,"train,train,train,train","bike,ship,submarine,airplane",80% type 1/20% type 3,57,34
"50,50,50,50","false,true,true,false","784.6999999880791,657.8000000119209,1400.5,869.6000000238419",50,"chair,chair,chair,chair",100,12,0,type1,"desk,desk,desk,desk","cushion,cabinet,door,couch",80% type 1/20% type 3,23,35
"50,50,50,50","false,false,false,false","935.4000000357628,664.0999999642372,857,749.3000000119209",50,"train,train,train,train",100,12,0,type1,"airplane,airplane,airplane,airplane","submarine,bike,ship,wagon",80% type 1/20% type 3,27,36
"50,50,50,50","false,true,false,false","826.6999999880791,737.9000000357628,814.5999999642372,647.8000000119209",50,"oven,oven,oven,oven",100,12,0,type3,"toy,toy,toy,toy","fork,dish,knife,scissors",80% type 1/20% type 3,66,37
"50,50,50,50","false,false,false,false","834.8999999761581,680.8000000119209,554.8000000119209,804.5",50,"door,door,door,door",100,12,0,type3,"make,make,make,make","chair,desk,cushion,couch",80% type 1/20% type 3,60,38
"50,50,50,50","false,true,true,false","898.8000000119209,640.8000000119209,992.8999999761581,772.1000000238419",50,"gloves,gloves,gloves,gloves",100,12,0,type1,"necklace,necklace,necklace,necklace","shirt,dress,coat,belt",80% type 1/20% type 3,42,39
"50,50,50,50","false,false,false,false","865.1000000238419,894.6999999880791,783.5,680.8999999761581",50,"hammer,hammer,hammer,hammer",100,12,0,type1,"toy,toy,toy,toy","brush,pen,radio,doll",80% type 1/20% type 3,31,40
50,true,650.0999999642372,50,left,100,12,0,catch,right,move this slider to the right,80% type 1/20% type 3,6,41
"50,50,50,50","false,false,false,true","771.1999999880791,1164.300000011921,712.3000000119209,717.7999999523163",50,"door,door,door,door",100,12,0,type1,"couch,couch,couch,couch","desk,cabinet,chair,cushion",80% type 1/20% type 3,30,42
"50,50,50,50","false,false,false,true","1185.8999999761581,950.6999999880791,609.5,757.6000000238419",50,"allow,allow,allow,allow",100,12,0,type1,"exist,exist,exist,exist","find,use,make,protect",80% type 1/20% type 3,54,43
"50,50,50,50","true,false,false,false","696.0999999642372,799.3000000119209,720.4000000357628,734.5",50,"exist,exist,exist,exist",100,12,0,type3,"couch,couch,couch,couch","allow,protect,use,make",80% type 1/20% type 3,62,44
"50,50,50,50","false,false,false,false","770.6000000238419,1044.5,625.1999999880791,1076.199999988079",50,"brush,brush,brush,brush",100,12,0,type1,"radio,radio,radio,radio","hammer,pen,toy,doll",80% type 1/20% type 3,38,45
50,true,659.6999999880791,50,left,100,12,0,catch,right,move this slider to the left,80% type 1/20% type 3,5,46
50,true,820.7999999523163,50,left,100,12,0,catch,right,move this slider to the left,80% type 1/20% type 3,3,47
"50,50,50,50","false,true,true,false","671.3000000119209,957.8999999761581,1315.199999988079,598.9000000357628",50,"make,make,make,make",100,12,0,type3,"submarine,submarine,submarine,submarine","work,allow,use,exist",80% type 1/20% type 3,55,48
"50,50,50,50","true,true,true,true","1156.199999988079,1307.300000011921,775.8999999761581,1082.8999999761581",50,"find,find,find,find",100,12,0,type3,"bike,bike,bike,bike","wagon,train,ship,airplane",80% type 1/20% type 3,64,49
"50,50,50,50","true,true,true,true","811.6999999880791,935.1000000238419,585.2999999523163,639",50,"scissors,scissors,scissors,scissors",100,12,0,type3,"cushion,cushion,cushion,cushion","pot,dish,fork,oven",80% type 1/20% type 3,59,50
"50,50,50,50","true,true,true,true","609,744.1999999880791,680.5999999642372,727",50,"radio,radio,radio,radio",100,12,0,type1,"brush,brush,brush,brush","pen,toy,doll,hammer",80% type 1/20% type 3,24,51
"50,50,50,50","true,true,true,true","824,705.1999999880791,688.9000000357628,845.3999999761581",50,"cushion,cushion,cushion,cushion",100,12,0,type1,"couch,couch,couch,couch","desk,door,chair,cabinet",80% type 1/20% type 3,44,52
"50,50,50,50","true,true,true,true","854.9000000357628,1401,610.3000000119209,560.5",50,"squirrel,squirrel,squirrel,squirrel",100,12,0,type3,"toy,toy,toy,toy","dolphin,buffalo,alligator,clam",80% type 1/20% type 3,63,53
"50,50,50,50","true,true,true,true","557.3999999761581,585.1000000238419,585.8000000119209,551.8999999761581",50,"desk,desk,desk,desk",100,12,0,type1,"chair,chair,chair,chair","couch,door,cabinet,cushion",80% type 1/20% type 3,9,54
"50,50,50,50","true,true,true,true","882.3999999761581,1069.6000000238419,1093.199999988079,615.6000000238419",50,"belt,belt,belt,belt",100,12,0,type1,"shirt,shirt,shirt,shirt","gloves,dress,necklace,coat",80% type 1/20% type 3,7,55
"50,50,50,50","true,true,true,true","767.7999999523163,658.6000000238419,623.5,623.6000000238419",50,"brush,brush,brush,brush",100,12,0,type1,"radio,radio,radio,radio","toy,doll,hammer,pen",80% type 1/20% type 3,17,56
50,true,2078.699999988079,50,left,100,12,0,catch,right,move this slider to the right,80% type 1/20% type 3,4,57
"50,50,50,50","false,false,false,true","803.1000000238419,1045.6000000238419,673.5,1043.5999999642372",50,"oven,oven,oven,oven",100,12,0,type1,"scissors,scissors,scissors,scissors","dish,knife,pot,fork",80% type 1/20% type 3,53,58
"50,50,50,50","true,true,true,true","1215.5999999642372,743.9000000357628,949.8999999761581,1034",50,"pen,pen,pen,pen",100,12,0,type1,"toy,toy,toy,toy","radio,hammer,brush,doll",80% type 1/20% type 3,10,59
"50,50,50,50","true,true,true,true","755.6999999880791,807.3000000119209,1552.800000011921,686.8000000119209",50,"buffalo,buffalo,buffalo,buffalo",100,12,0,type1,"dolphin,dolphin,dolphin,dolphin","octopus,mouse,clam,fox",80% type 1/20% type 3,43,60
"50,50,50,50","true,true,true,true","687.3999999761581,831.3000000119209,878.6999999880791,671",50,"dish,dish,dish,dish",100,12,0,type1,"scissors,scissors,scissors,scissors","oven,pot,knife,fork",80% type 1/20% type 3,25,61
"50,50,50,50","false,true,true,true","897.8999999761581,972.8999999761581,1053.9000000357628,1041.5",50,"scissors,scissors,scissors,scissors",100,12,0,type1,"fork,fork,fork,fork","pot,oven,dish,knife",80% type 1/20% type 3,32,62
"50,50,50,50","true,true,true,true","846.1000000238419,1029.5,988.3999999761581,884.8000000119209",50,"coat,coat,coat,coat",100,12,0,type1,"shirt,shirt,shirt,shirt","dress,belt,necklace,gloves",80% type 1/20% type 3,21,63
"50,50,50,50","false,false,false,false","708.6999999880791,863.6999999880791,1392,1408.300000011921",50,"bike,bike,bike,bike",100,12,0,type1,"ship,ship,ship,ship","submarine,wagon,airplane,train",80% type 1/20% type 3,48,64
"50,50,50,50","false,true,false,false","716,569,997.8000000119209,631.0999999642372",50,"pen,pen,pen,pen",100,12,0,type3,"train,train,train,train","radio,brush,doll,hammer",80% type 1/20% type 3,61,65
"50,50,50,50","false,false,false,false","1341.300000011921,727.3999999761581,687.7000000476837,632.5",50,"allow,allow,allow,allow",100,12,0,type1,"protect,protect,protect,protect","make,work,find,use",80% type 1/20% type 3,26,66
