sliders,choices,rt,default,left_words,max,max_duration,min,question_type,right_words,slider_words,triad_mix,trial,trial_num
"0,100,100,0","false,false,false,false","9422.100000023842,4032.6999999284744,3667.8000000715256,3726.7999999523163",50,"radio,radio,radio,radio",100,12,0,random,"toy,toy,toy,toy","coat,chair,zebra,find",random,35,3
"0,100,0,0","true,false,false,false","4028.5,4334.100000023842,6927.199999928474,3727.3000000715256",50,"gloves,gloves,gloves,gloves",100,12,0,random,"dish,dish,dish,dish","brush,alligator,toy,coat",random,7,4
"78,82,0,5","false,false,true,true","5775.800000071526,5216.899999976158,3993.899999976158,4475.799999952316",50,"necklace,necklace,necklace,necklace",100,12,0,random,"shirt,shirt,shirt,shirt","chair,fox,doll,pen",random,49,5
"67,83,0,30","true,false,false,false","6037.399999976158,6463.599999904633,5730.200000047684,3180.7999999523163",50,"doll,doll,doll,doll",100,12,0,random,"alligator,alligator,alligator,alligator","desk,protect,radio,train",random,60,6
"16,0,43,76","true,true,false,false","4327.100000023842,3302.4000000953674,5759.599999904633,6189.600000023842",50,"clam,clam,clam,clam",100,12,0,random,"belt,belt,belt,belt","airplane,zebra,work,toy",random,28,7
"12,78,23,24","false,false,false,false","3775.1999999284744,4452.800000071526,4974.899999976158,4466.5",50,"hammer,hammer,hammer,hammer",100,12,0,random,"couch,couch,couch,couch","alligator,dress,dish,airplane",random,18,8
"54,84,100,36","false,false,false,false","4207,4854.200000047684,6084.199999928474,5422.5",50,"mouse,mouse,mouse,mouse",100,12,0,random,"chair,chair,chair,chair","shirt,bike,gloves,toy",random,37,9
"0,95,90,50","true,true,true,false","4491.5,4637.699999928474,3351.399999976158,3510.2000000476837",50,"submarine,submarine,submarine,submarine",100,12,0,random,"brush,brush,brush,brush","dolphin,cushion,pen,desk",random,10,10
"73,50,50,8","false,false,false,true","4752.699999928474,3423.2000000476837,2822.2000000476837,7700.199999928474",50,"squirrel,squirrel,squirrel,squirrel",100,12,0,random,"elephant,elephant,elephant,elephant","necklace,door,make,turtle",random,22,11
"50,19,50,89","false,false,false,true","2940.2000000476837,6574,2547.6999999284744,3622.8000000715256",50,"pen,pen,pen,pen",100,12,0,random,"chair,chair,chair,chair","alligator,snail,turtle,train",random,41,12
"88,44,85,50","true,false,false,false","3851.2999999523163,4492.5,9395.5,3502.399999976158",50,"desk,desk,desk,desk",100,12,0,random,"pot,pot,pot,pot","submarine,clam,elephant,squirrel",random,51,13
"87,85,50,78","true,true,false,true","3814.2000000476837,3876.1999999284744,3086.600000023842,4040",50,"bike,bike,bike,bike",100,12,0,random,"door,door,door,door","desk,cabinet,shirt,find",random,24,14
"50,84,50,81","false,true,false,false","3101.399999976158,3449.7999999523163,6743.600000023842,5978",50,"pot,pot,pot,pot",100,12,0,random,"ship,ship,ship,ship","brush,alligator,allow,dress",random,14,15
"46,79,22,43","false,false,false,false","5688.899999976158,5151.299999952316,6197.5,5945.800000071526",50,"door,door,door,door",100,12,0,random,"ship,ship,ship,ship","elephant,snail,doll,turtle",random,46,16
"79,24,25,72","false,true,false,true","3522.4000000953674,4862.799999952316,6333.799999952316,4804.600000023842",50,"brush,brush,brush,brush",100,12,0,random,"necklace,necklace,necklace,necklace","elephant,cushion,squirrel,toy",random,44,17
"78,28,26,61","false,false,false,false","4081.7000000476837,6719.700000047684,7056,4821.199999928474",50,"ship,ship,ship,ship",100,12,0,random,"scissors,scissors,scissors,scissors","dress,radio,turtle,coat",random,9,18
"0,11,73,60","true,true,true,true","3541.5,8528.199999928474,6887.899999976158,9474",50,"belt,belt,belt,belt",100,12,0,random,"ship,ship,ship,ship","protect,train,work,couch",random,38,19
"39,91,19,25","true,true,true,true","7224.300000071526,3777.899999976158,9204.700000047684,8235.799999952316",50,"scissors,scissors,scissors,scissors",100,12,0,random,"dolphin,dolphin,dolphin,dolphin","oven,fox,door,dress",random,13,20
"15,17,60,91","true,true,false,true","3646.3000000715256,5769.699999928474,5456.600000023842,4627.300000071526",50,"brush,brush,brush,brush",100,12,0,random,"lion,lion,lion,lion","doll,airplane,wagon,snail",random,32,21
"14,28,12,16","true,true,true,false","4398.299999952316,8091.800000071526,7264.799999952316,7399",50,"ship,ship,ship,ship",100,12,0,random,"train,train,train,train","mouse,find,radio,snail",random,64,22
"3,79,8,47","true,true,true,false","4625.799999952316,10325.800000071526,3020.399999976158,4604.799999952316",50,"buffalo,buffalo,buffalo,buffalo",100,12,0,random,"pot,pot,pot,pot","elephant,train,lion,submarine",random,61,23
"9,56,23,84","true,false,true,true","3498.3000000715256,7484.099999904633,5488.900000095367,7054.199999928474",50,"chair,chair,chair,chair",100,12,0,random,"work,work,work,work","cushion,exist,airplane,hammer",random,15,24
"50,17,46,81","false,true,false,true","5195.899999976158,4355.700000047684,4984.899999976158,6184",50,"fork,fork,fork,fork",100,12,0,random,"radio,radio,radio,radio","couch,oven,exist,find",random,25,25
"50,25,68,10","false,true,false,true","2883.399999976158,4372,4533.399999976158,4273.300000071526",50,"squirrel,squirrel,squirrel,squirrel",100,12,0,random,"mouse,mouse,mouse,mouse","allow,protect,knife,elephant",random,29,26
"15,56,61,50","true,true,false,false","3469.2999999523163,8543.300000071526,3808.5,2754.399999976158",50,"necklace,necklace,necklace,necklace",100,12,0,random,"clam,clam,clam,clam","coat,squirrel,elephant,lion",random,19,27
0,true,8098.799999952316,50,left,100,12,0,catch,right,move this slider to the left,random,3,28
"29,11,14,27","true,true,true,true","7681.399999976158,3857.600000023842,5071.5,4875.5",50,"bike,bike,bike,bike",100,12,0,random,"squirrel,squirrel,squirrel,squirrel","find,protect,cushion,gloves",random,39,29
"50,21,49,79","false,true,false,false","4297.600000023842,8783,3456.7000000476837,5879.899999976158",50,"clam,clam,clam,clam",100,12,0,random,"protect,protect,protect,protect","fork,lion,squirrel,use",random,43,30
"86,72,5,73","false,false,true,false","8403.200000047684,9556.299999952316,3607.9000000953674,4394.099999904633",50,"snail,snail,snail,snail",100,12,0,random,"dish,dish,dish,dish","knife,door,fox,exist",random,54,31
"77,50,0,67","false,false,true,false","4116.800000071526,3559.899999976158,3077.7999999523163,4892.5",50,"submarine,submarine,submarine,submarine",100,12,0,random,"make,make,make,make","hammer,elephant,octopus,lion",random,20,32
"100,77,69,22","true,true,true,true","3262.2000000476837,3914.399999976158,3977.2000000476837,3719.6999999284744",50,"elephant,elephant,elephant,elephant",100,12,0,random,"submarine,submarine,submarine,submarine","protect,cushion,chair,buffalo",random,50,33
"77,14,83,50","true,true,true,false","4618.199999928474,4621.200000047684,4155.399999976158,5884",50,"elephant,elephant,elephant,elephant",100,12,0,random,"dish,dish,dish,dish","chair,lion,knife,find",random,57,34
"44,50,80,50","true,false,true,false","5067.5,2685.7000000476837,4227.5,5976.600000023842",50,"alligator,alligator,alligator,alligator",100,12,0,random,"elephant,elephant,elephant,elephant","pen,use,lion,shirt",random,40,35
"41,77,28,93","true,true,true,true","6726.5,9885.299999952316,11262.300000071526,2932",50,"train,train,train,train",100,12,0,random,"squirrel,squirrel,squirrel,squirrel","scissors,elephant,cabinet,mouse",random,62,36
"81,77,27,50","true,true,true,false","8419.399999976158,2659.8000000715256,3890.7999999523163,2681.899999976158",50,"cushion,cushion,cushion,cushion",100,12,0,random,"hammer,hammer,hammer,hammer","dish,knife,belt,mouse",random,63,37
"50,50,78,50","true,true,true,false","6587.100000023842,2459.399999976158,5261.899999976158,2616.5",50,"airplane,airplane,airplane,airplane",100,12,0,random,"cushion,cushion,cushion,cushion","gloves,snail,cabinet,shirt",random,55,38
"15,50,45,63","true,false,false,false","8124.100000023842,4172.799999952316,6292.399999976158,6909.800000071526",50,"coat,coat,coat,coat",100,12,0,random,"necklace,necklace,necklace,necklace","ship,fox,work,squirrel",random,52,39
"50,50,50,75","false,false,true,false","3516,2676.7999999523163,4829.5,3896",50,"chair,chair,chair,chair",100,12,0,random,"shirt,shirt,shirt,shirt","fox,turtle,hammer,zebra",random,17,40
"50,82,50,18","false,true,false,false","5468.5,3898.399999976158,5135.700000047684,6652.899999976158",50,"airplane,airplane,airplane,airplane",100,12,0,random,"buffalo,buffalo,buffalo,buffalo","couch,snail,gloves,brush",random,27,41
"80,17,70,85","true,true,false,true","3885.1999999284744,4749.700000047684,8969.200000047684,3807.0999999046326",50,"zebra,zebra,zebra,zebra",100,12,0,random,"shirt,shirt,shirt,shirt","coat,elephant,knife,dress",random,59,42
"72,51,50,75","true,true,false,true","3951.2999999523163,7722.5,7828.600000023842,4137.100000023842",50,"coat,coat,coat,coat",100,12,0,random,"ship,ship,ship,ship","elephant,scissors,exist,use",random,47,43
"8,35,11,50","true,true,true,false","3510.600000023842,4202.600000023842,3873.899999976158,2907.7000000476837",50,"fox,fox,fox,fox",100,12,0,random,"necklace,necklace,necklace,necklace","zebra,allow,alligator,protect",random,45,44
"50,86,28,11","false,true,false,true","2887.600000023842,2959.2999999523163,4091.100000023842,4506.5",50,"doll,doll,doll,doll",100,12,0,random,"zebra,zebra,zebra,zebra","hammer,mouse,dish,toy",random,65,45
100,true,6298.5,50,left,100,12,0,catch,right,move this slider to the right,random,4,46
"84,60,20,13","true,false,true,true","3367.0999999046326,4395.900000095367,4750.100000023842,3459.5",50,"zebra,zebra,zebra,zebra",100,12,0,random,"airplane,airplane,airplane,airplane","submarine,pot,lion,fox",random,16,47
"57,50,13,30","false,false,true,true","6617.600000023842,7084.100000023842,3577,3719.600000023842",50,"gloves,gloves,gloves,gloves",100,12,0,random,"turtle,turtle,turtle,turtle","clam,allow,shirt,dish",random,33,48
"14,15,50,55","true,true,false,false","8170.600000023842,2885.6999999284744,4603.800000071526,4223.699999928474",50,"squirrel,squirrel,squirrel,squirrel",100,12,0,random,"clam,clam,clam,clam","fox,mouse,pot,scissors",random,48,49
"50,34,50,72","false,true,false,true","6892.399999976158,8936.799999952316,6414.100000023842,5174.100000023842",50,"scissors,scissors,scissors,scissors",100,12,0,random,"chair,chair,chair,chair","work,oven,exist,brush",random,34,50
"50,23,75,14","false,true,true,true","6145.600000023842,5175.199999928474,9515.300000071526,3349.5999999046326",50,"submarine,submarine,submarine,submarine",100,12,0,random,"wagon,wagon,wagon,wagon","pot,turtle,couch,airplane",random,42,51
"34,30,84,11","true,true,true,true","3452.1999999284744,3342.899999976158,7743.600000023842,3935.3000000715256",50,"desk,desk,desk,desk",100,12,0,random,"octopus,octopus,octopus,octopus","fork,find,snail,work",random,30,52
100,true,4316,50,left,100,12,0,catch,right,move this slider to the right,random,6,53
"19,25,50,32","true,true,false,true","5373.399999976158,4082.4000000953674,2715.899999976158,3589.600000023842",50,"find,find,find,find",100,12,0,random,"clam,clam,clam,clam","mouse,alligator,radio,airplane",random,36,54
"86,45,33,22","true,true,false,false","3936.6999999284744,5335.700000047684,6723.799999952316,6369",50,"cushion,cushion,cushion,cushion",100,12,0,random,"dolphin,dolphin,dolphin,dolphin","protect,make,cabinet,radio",random,56,55
0,true,4040.5999999046326,50,left,100,12,0,catch,right,move this slider to the left,random,5,56
"26,25,67,100","true,false,false,true","5574.099999904633,8861.800000071526,7668.899999976158,3501",50,"ship,ship,ship,ship",100,12,0,random,"alligator,alligator,alligator,alligator","find,scissors,belt,buffalo",random,11,57
"76,13,62,26","true,false,false,true","6786.400000095367,5543.699999928474,9311.100000023842,5654",50,"submarine,submarine,submarine,submarine",100,12,0,random,"shirt,shirt,shirt,shirt","toy,airplane,pot,find",random,26,58
"50,50,86,86","false,false,true,true","4835.5,2691.3000000715256,3615.5,3565.1999999284744",50,"fork,fork,fork,fork",100,12,0,random,"lion,lion,lion,lion","use,cushion,fox,snail",random,66,59
"81,32,71,75","true,true,false,false","6481.700000047684,5446.699999928474,9472.300000071526,10436.100000023842",50,"wagon,wagon,wagon,wagon",100,12,0,random,"airplane,airplane,airplane,airplane","submarine,turtle,protect,cabinet",random,21,60
"28,77,27,67","true,false,true,true","7991.5,4058.100000023842,3985.899999976158,7696.600000023842",50,"toy,toy,toy,toy",100,12,0,random,"desk,desk,desk,desk","gloves,dish,train,cushion",random,58,61
"32,71,71,50","true,false,true,false","5103.299999952316,5818.200000047684,5182.099999904633,6298.800000071526",50,"doll,doll,doll,doll",100,12,0,random,"belt,belt,belt,belt","clam,oven,work,exist",random,8,62
"76,33,71,67","false,false,false,false","8194.5,6999.100000023842,7440.800000071526,6643.099999904633",50,"buffalo,buffalo,buffalo,buffalo",100,12,0,random,"brush,brush,brush,brush","pen,chair,belt,hammer",random,23,63
"27,28,52,23","false,true,false,false","4012.2000000476837,4876.599999904633,6700.5,4787.100000023842",50,"dish,dish,dish,dish",100,12,0,random,"zebra,zebra,zebra,zebra","pot,necklace,use,couch",random,12,64
"32,38,67,83","false,false,false,true","7628.600000023842,6917.899999976158,5167.399999976158,3179.7999999523163",50,"find,find,find,find",100,12,0,random,"protect,protect,protect,protect","buffalo,dish,alligator,airplane",random,31,65
"72,65,77,75","false,false,false,false","5210.200000047684,6951.600000023842,4331.199999928474,6169.600000023842",50,"knife,knife,knife,knife",100,12,0,random,"coat,coat,coat,coat","protect,airplane,chair,train",random,53,66
