sliders,choices,rt,default,left_words,max,max_duration,min,question_type,right_words,slider_words,triad_mix,trial,trial_num
"100,0,77,99","true,true,true,true","3162,3341.4000000953674,3631,3119.3999996185303",50,"oven,oven,oven,oven",100,12,0,type1,"knife,knife,knife,knife","fork,pot,dish,scissors",80% type 1/20% type 3,51,3
"34,53,12,85","true,true,true,true","5268.5,3801.199999809265,4209.900000095367,3678",50,"brush,brush,brush,brush",100,12,0,type3,"door,door,door,door","toy,radio,pen,hammer",80% type 1/20% type 3,64,4
"75,91,17,15","true,true,true,true","4797.200000286102,5460.5,4267.89999961853,4101.400000095367",50,"alligator,alligator,alligator,alligator",100,12,0,type1,"elephant,elephant,elephant,elephant","buffalo,zebra,fox,octopus",80% type 1/20% type 3,38,5
"79,14,86,2","true,true,true,true","3853.300000190735,3452,3481,4172.699999809265",50,"clam,clam,clam,clam",100,12,0,type1,"lion,lion,lion,lion","fox,alligator,elephant,snail",80% type 1/20% type 3,10,6
"72,71,90,5","true,true,true,true","3822.9000000953674,3357.0999999046326,3516,3665.800000190735",50,"bike,bike,bike,bike",100,12,0,type1,"train,train,train,train","submarine,airplane,ship,wagon",80% type 1/20% type 3,50,7
"9,80,20,11","true,true,true,true","4447.599999904633,3428.5999999046326,3475.800000190735,4906.699999809265",50,"allow,allow,allow,allow",100,12,0,type1,"exist,exist,exist,exist","use,find,work,protect",80% type 1/20% type 3,48,8
"74,15,3,9","true,true,true,true","4611.599999904633,3571.5,4057.9000000953674,3619",50,"coat,coat,coat,coat",100,12,0,type1,"necklace,necklace,necklace,necklace","belt,dress,gloves,shirt",80% type 1/20% type 3,49,9
"73,83,50,31","true,true,false,true","3778.699999809265,3623.2000002861023,3491.5999999046326,5499.300000190735",50,"dolphin,dolphin,dolphin,dolphin",100,12,0,type1,"lion,lion,lion,lion","squirrel,buffalo,mouse,snail",80% type 1/20% type 3,45,10
"95,25,3,50","true,true,true,true","4270.800000190735,3920,3617.9000000953674,3103.3999996185303",50,"chair,chair,chair,chair",100,12,0,type1,"couch,couch,couch,couch","cushion,door,desk,cabinet",80% type 1/20% type 3,53,11
"19,15,71,33","true,true,true,true","5720,3618.0999999046326,4030.4000000953674,5762.900000095367",50,"wagon,wagon,wagon,wagon",100,12,0,type1,"bike,bike,bike,bike","submarine,ship,train,airplane",80% type 1/20% type 3,22,12
"85,36,30,24","true,true,true,true","3160.199999809265,3603.6000003814697,3238.5,3697.2999997138977",50,"snail,snail,snail,snail",100,12,0,type1,"elephant,elephant,elephant,elephant","buffalo,mouse,turtle,alligator",80% type 1/20% type 3,24,13
"24,67,50,29","true,true,false,true","3270,3292.9000000953674,2151.300000190735,3792.5",50,"alligator,alligator,alligator,alligator",100,12,0,type1,"squirrel,squirrel,squirrel,squirrel","dolphin,elephant,mouse,clam",80% type 1/20% type 3,17,14
"29,13,79,18","true,true,true,true","3570.7999997138977,5786.700000286102,3150.2999997138977,3007.2000002861023",50,"use,use,use,use",100,12,0,type1,"make,make,make,make","protect,work,find,allow",80% type 1/20% type 3,13,15
"71,84,84,83","true,true,true,true","3139.5999999046326,4308.400000095367,3048.7000002861023,3125.7999997138977",50,"exist,exist,exist,exist",100,12,0,type3,"belt,belt,belt,belt","coat,gloves,shirt,dress",80% type 1/20% type 3,66,16
"16,97,28,22","true,true,true,true","6578.200000286102,2579,2738.199999809265,3768.199999809265",50,"necklace,necklace,necklace,necklace",100,12,0,type1,"coat,coat,coat,coat","dress,gloves,shirt,belt",80% type 1/20% type 3,35,17
100,true,3366.9000000953674,50,left,100,12,0,catch,right,move this slider to the right,80% type 1/20% type 3,6,18
"25,20,25,25","true,true,true,true","3184.0999999046326,3579.0999999046326,3476.4000000953674,4117.400000095367",50,"use,use,use,use",100,12,0,type1,"work,work,work,work","exist,protect,allow,make",80% type 1/20% type 3,27,19
"67,70,70,74","true,true,true,true","3167.199999809265,2785.5999999046326,2733.5,2559.0999999046326",50,"work,work,work,work",100,12,0,type1,"use,use,use,use","make,find,allow,protect",80% type 1/20% type 3,41,20
"23,0,3,84","true,true,true,true","3487.5999999046326,4781.400000095367,4679.300000190735,3267.7999997138977",50,"cushion,cushion,cushion,cushion",100,12,0,type1,"cabinet,cabinet,cabinet,cabinet","desk,couch,chair,door",80% type 1/20% type 3,39,21
"94,83,2,81","true,true,true,true","3034.699999809265,3286.0999999046326,3563.0999999046326,2593.6000003814697",50,"coat,coat,coat,coat",100,12,0,type1,"shirt,shirt,shirt,shirt","dress,belt,gloves,necklace",80% type 1/20% type 3,21,22
"6,93,90,88","true,true,true,true","3601.9000000953674,6135.89999961853,3948.5,2968.1000003814697",50,"oven,oven,oven,oven",100,12,0,type1,"knife,knife,knife,knife","pot,dish,scissors,fork",80% type 1/20% type 3,44,23
"86,89,84,88","true,true,true,true","2727.0999999046326,2984.9000000953674,3476.5,3442.5",50,"cabinet,cabinet,cabinet,cabinet",100,12,0,type1,"chair,chair,chair,chair","couch,cushion,door,desk",80% type 1/20% type 3,25,24
"94,90,94,91","true,true,true,true","2784.2000002861023,3076.7999997138977,2780,4934.700000286102",50,"toy,toy,toy,toy",100,12,0,type3,"allow,allow,allow,allow","protect,find,use,work",80% type 1/20% type 3,63,25
"8,84,76,19","true,true,true,true","5280,5694.700000286102,6270.699999809265,3579.0999999046326",50,"belt,belt,belt,belt",100,12,0,type1,"gloves,gloves,gloves,gloves","shirt,coat,dress,necklace",80% type 1/20% type 3,42,26
"12,12,12,83","true,true,true,true","3136.0999999046326,3142.9000000953674,2848.9000000953674,2824.0999999046326",50,"lion,lion,lion,lion",100,12,0,type1,"fox,fox,fox,fox","zebra,mouse,squirrel,buffalo",80% type 1/20% type 3,31,27
"77,57,81,22","true,true,true,true","4250.599999904633,2925.0999999046326,2682.699999809265,3458.9000000953674",50,"submarine,submarine,submarine,submarine",100,12,0,type1,"ship,ship,ship,ship","wagon,bike,airplane,train",80% type 1/20% type 3,43,28
"29,87,83,25","true,true,true,true","4906.10000038147,3641.8999996185303,4175.700000286102,2903.699999809265",50,"necklace,necklace,necklace,necklace",100,12,0,type1,"dress,dress,dress,dress","gloves,coat,shirt,belt",80% type 1/20% type 3,14,29
0,true,3582.5,50,left,100,12,0,catch,right,move this slider to the left,80% type 1/20% type 3,5,30
"96,88,97,94","true,true,true,true","2439.199999809265,2714.5999999046326,2356.9000000953674,2562.5999999046326",50,"doll,doll,doll,doll",100,12,0,type3,"cushion,cushion,cushion,cushion","chair,couch,desk,door",80% type 1/20% type 3,55,31
"91,94,97,98","true,true,true,true","2889.7000002861023,3492.5,2707,2506.5",50,"scissors,scissors,scissors,scissors",100,12,0,type1,"knife,knife,knife,knife","dish,fork,oven,pot",80% type 1/20% type 3,16,32
"0,72,50,78","true,true,false,true","3055.4000000953674,3282.300000190735,4636.599999904633,4469",50,"doll,doll,doll,doll",100,12,0,type1,"brush,brush,brush,brush","toy,pen,radio,hammer",80% type 1/20% type 3,47,33
"93,9,8,14","true,true,true,true","4361.900000095367,3190.699999809265,3146,3992.0999999046326",50,"oven,oven,oven,oven",100,12,0,type1,"scissors,scissors,scissors,scissors","knife,dish,pot,fork",80% type 1/20% type 3,9,34
"87,96,93,5","true,true,true,true","4979.699999809265,2825.800000190735,2603.5999999046326,3216.5",50,"oven,oven,oven,oven",100,12,0,type1,"dish,dish,dish,dish","scissors,fork,knife,pot",80% type 1/20% type 3,37,35
"92,7,89,11","true,true,true,true","2881.5,3072.800000190735,4580.199999809265,5786.400000095367",50,"pot,pot,pot,pot",100,12,0,type1,"dish,dish,dish,dish","fork,oven,scissors,knife",80% type 1/20% type 3,30,36
0,true,4221.300000190735,50,left,100,12,0,catch,right,move this slider to the left,80% type 1/20% type 3,3,37
"25,87,21,94","true,true,true,true","7645.599999904633,3144.0999999046326,2789.2000002861023,2918.9000000953674",50,"wagon,wagon,wagon,wagon",100,12,0,type1,"airplane,airplane,airplane,airplane","train,ship,bike,submarine",80% type 1/20% type 3,36,38
"9,7,10,6","true,true,true,true","2958.5,3224.8999996185303,3178.300000190735,3072.300000190735",50,"oven,oven,oven,oven",100,12,0,type3,"cabinet,cabinet,cabinet,cabinet","fork,pot,dish,knife",80% type 1/20% type 3,61,39
"13,100,14,91","true,true,true,true","5381.5,4456.39999961853,2928.6000003814697,4336.199999809265",50,"pot,pot,pot,pot",100,12,0,type1,"scissors,scissors,scissors,scissors","dish,knife,oven,fork",80% type 1/20% type 3,23,40
"13,23,6,11","true,true,true,true","4195.10000038147,3733.7999997138977,2805,2947.800000190735",50,"coat,coat,coat,coat",100,12,0,type3,"radio,radio,radio,radio","shirt,necklace,gloves,belt",80% type 1/20% type 3,59,41
"17,11,37,50","true,true,true,false","3195.300000190735,3224.800000190735,3479.0999999046326,2794.2999997138977",50,"pen,pen,pen,pen",100,12,0,type1,"hammer,hammer,hammer,hammer","brush,toy,doll,radio",80% type 1/20% type 3,26,42
"15,93,6,31","true,true,true,true","4072.699999809265,5883.300000190735,2625,3631.0999999046326",50,"necklace,necklace,necklace,necklace",100,12,0,type1,"gloves,gloves,gloves,gloves","dress,coat,belt,shirt",80% type 1/20% type 3,28,43
"50,27,33,22","false,true,true,true","3643.699999809265,3456.1000003814697,6004,3145.8999996185303",50,"radio,radio,radio,radio",100,12,0,type3,"buffalo,buffalo,buffalo,buffalo","doll,pen,hammer,toy",80% type 1/20% type 3,57,44
"92,25,84,2","true,true,true,true","4933.200000286102,3868.5999999046326,2937.5,4319.599999904633",50,"ship,ship,ship,ship",100,12,0,type1,"train,train,train,train","bike,wagon,airplane,submarine",80% type 1/20% type 3,15,45
"20,80,22,25","true,true,true,true","3865.2999997138977,2714.0999999046326,3301.5,3150.2000002861023",50,"radio,radio,radio,radio",100,12,0,type1,"pen,pen,pen,pen","toy,brush,doll,hammer",80% type 1/20% type 3,33,46
"22,15,83,84","true,true,true,true","3169.0999999046326,2658.2000002861023,2960.5999999046326,2399.4000000953674",50,"radio,radio,radio,radio",100,12,0,type1,"pen,pen,pen,pen","toy,doll,hammer,brush",80% type 1/20% type 3,40,47
"78,75,86,85","true,true,true,true","3756.7000002861023,2524.7999997138977,2540.4000000953674,3902.0999999046326",50,"shirt,shirt,shirt,shirt",100,12,0,type3,"elephant,elephant,elephant,elephant","mouse,fox,buffalo,clam",80% type 1/20% type 3,58,48
100,true,2220.5999999046326,50,left,100,12,0,catch,right,move this slider to the right,80% type 1/20% type 3,4,49
"14,100,79,17","true,true,true,true","3387.300000190735,2531.9000000953674,3419.699999809265,2698.0999999046326",50,"pen,pen,pen,pen",100,12,0,type1,"toy,toy,toy,toy","hammer,doll,radio,brush",80% type 1/20% type 3,54,50
"80,78,21,16","true,true,true,true","3697,2539.699999809265,3334.0999999046326,2541.5",50,"airplane,airplane,airplane,airplane",100,12,0,type1,"ship,ship,ship,ship","wagon,submarine,bike,train",80% type 1/20% type 3,29,51
"85,87,87,92","true,true,true,true","3072.300000190735,5067.199999809265,2507.300000190735,2288.199999809265",50,"coat,coat,coat,coat",100,12,0,type3,"find,find,find,find","work,protect,use,allow",80% type 1/20% type 3,56,52
"19,12,18,0","true,true,true,true","2952.8999996185303,2952,3087.300000190735,2998.300000190735",50,"couch,couch,couch,couch",100,12,0,type1,"desk,desk,desk,desk","cushion,chair,door,cabinet",80% type 1/20% type 3,46,53
"28,86,26,22","true,true,true,true","2784.199999809265,2390.4000000953674,2926.4000000953674,2945",50,"use,use,use,use",100,12,0,type1,"work,work,work,work","exist,make,protect,allow",80% type 1/20% type 3,20,54
"80,26,96,97","true,true,true,true","2700.5,2792.7000002861023,2417.0999999046326,2776",50,"desk,desk,desk,desk",100,12,0,type1,"cushion,cushion,cushion,cushion","cabinet,door,chair,couch",80% type 1/20% type 3,32,55
"71,86,86,78","true,true,true,true","2856.5,2427.5999999046326,3119.300000190735,2253.300000190735",50,"gloves,gloves,gloves,gloves",100,12,0,type3,"ship,ship,ship,ship","bike,submarine,train,airplane",80% type 1/20% type 3,60,56
"86,77,17,57","true,true,true,true","3729.3999996185303,3824.5,2571.4000000953674,3102.0999999046326",50,"snail,snail,snail,snail",100,12,0,type1,"turtle,turtle,turtle,turtle","elephant,octopus,clam,zebra",80% type 1/20% type 3,52,57
"30,70,32,63","true,true,true,true","3212.5999999046326,4047.4000000953674,3603.5999999046326,3093.7000002861023",50,"cabinet,cabinet,cabinet,cabinet",100,12,0,type1,"door,door,door,door","chair,cushion,desk,couch",80% type 1/20% type 3,18,58
"80,81,78,74","true,true,true,true","2762.699999809265,2395.9000000953674,2516.300000190735,2538.2999997138977",50,"necklace,necklace,necklace,necklace",100,12,0,type3,"dolphin,dolphin,dolphin,dolphin","fox,snail,turtle,elephant",80% type 1/20% type 3,65,59
"29,38,28,100","true,true,true,true","3084.5999999046326,2658.0999999046326,3646.4000000953674,4775",50,"brush,brush,brush,brush",100,12,0,type1,"toy,toy,toy,toy","radio,hammer,pen,doll",80% type 1/20% type 3,12,60
"23,22,32,15","true,true,true,true","3222.5999999046326,3381,2626.9000000953674,2941.4000000953674",50,"toy,toy,toy,toy",100,12,0,type1,"doll,doll,doll,doll","radio,pen,hammer,brush",80% type 1/20% type 3,19,61
"15,85,82,20","true,true,true,true","2942.9000000953674,2841.2999997138977,2444.9000000953674,3386.5999999046326",50,"coat,coat,coat,coat",100,12,0,type1,"shirt,shirt,shirt,shirt","dress,necklace,belt,gloves",80% type 1/20% type 3,7,62
"67,19,18,24","true,true,true,true","3472.5999999046326,2780.699999809265,2770.4000000953674,2680.5999999046326",50,"work,work,work,work",100,12,0,type1,"protect,protect,protect,protect","exist,use,make,allow",80% type 1/20% type 3,34,63
"1,85,76,0","true,true,true,true","5776,2221.1000003814697,2397.699999809265,2562.199999809265",50,"couch,couch,couch,couch",100,12,0,type1,"desk,desk,desk,desk","cushion,cabinet,door,chair",80% type 1/20% type 3,11,64
"80,27,28,26","true,true,true,true","3599.9000000953674,2809.5999999046326,2745.5,3280.300000190735",50,"train,train,train,train",100,12,0,type1,"wagon,wagon,wagon,wagon","ship,bike,submarine,airplane",80% type 1/20% type 3,8,65
"75,81,81,83","true,true,true,true","2477.0999999046326,2087.1000003814697,2348.0999999046326,2222",50,"coat,coat,coat,coat",100,12,0,type3,"couch,couch,couch,couch","cabinet,desk,chair,door",80% type 1/20% type 3,62,66
